relative_time,AccX,AccY,AccZ,DecibelSource
0,3.6687208557128907,-0.6273454284667969,8.807085571289063,57.89589877373339
66,3.890559539794922,-0.5212161254882812,9.174571380615236,56.76934918874028
133,3.696113891601563,-0.5673202514648438,9.043144683837891,56.511480939855325
200,3.9002893066406252,-0.6462062072753907,9.320368194580078,55.842667539953446
266,3.2754885864257814,-0.6712042236328125,8.627309417724609,56.52248275495594
333,4.409829711914063,-0.6590794372558594,8.965306549072267,55.14498609525744
400,4.436174926757813,-0.6631210327148438,8.881331176757813,57.44650444221008
466,3.84879638671875,-0.3502716064453125,9.258546752929687,57.56671854306494
533,4.229903869628907,-0.5054988098144532,9.158404998779297,57.7889036934672
600,3.959116973876953,-0.3299139404296875,8.883875885009767,59.41276333211096
666,3.813918914794922,-0.3914360046386719,9.394164733886718,59.33799988754104
733,4.131109313964844,-0.42571472167968755,9.013656005859376,59.0817768702792
799,4.017495574951172,-0.6301895141601562,8.534502410888672,58.897956766118
866,3.964805145263672,-0.5944139099121094,8.858129425048828,60.805619150849424
933,3.79610595703125,-0.5194198608398438,8.675509185791016,61.21601203597265
1000,4.071982269287109,-0.2805166625976563,9.344468078613282,58.837692857499306
1066,3.839066619873047,-0.4010160827636719,9.001531219482422,58.59144904767504
1133,4.166585540771485,-0.29488677978515626,9.303902435302735,57.93115377323403
1199,3.882027282714844,-0.23171813964843752,9.217681732177734,59.443538452495794
1266,4.161795501708984,-0.4972659301757813,9.048683166503906,58.709221739631296
1333,3.792363739013672,-0.6020480346679687,8.752748565673828,60.82744810342789
1399,4.1447309875488285,-0.6230044555664063,8.776100006103515,62.2649963217631
1466,3.930077362060547,-0.5605842590332032,8.570727081298829,61.90808040014832
1533,4.233346710205078,-0.6053411865234375,9.171278228759766,63.375570913268284
1600,4.164489898681641,-0.40490798950195317,8.8472021484375,63.567885505212985
1666,4.2944197082519535,-0.19953506469726565,9.200617218017578,53.76907114307684
1733,4.1622445678710935,-0.16989669799804688,9.034762115478516,61.07792822276471
1800,4.223616943359375,-0.056133270263671875,8.96410903930664,54.352342059420025
1866,4.27031982421875,-0.02305206298828125,8.851243743896484,52.68278355119043
1933,4.256249084472657,0.06421646118164062,8.834029541015626,49.449167496294876
2000,4.361629943847657,-0.076640625,9.201066284179689,50.90236884528415
2066,4.1769140625,0.07873626708984376,9.117090911865235,51.763228210349894
2133,4.323609008789063,0.00209564208984375,9.09284133911133,47.9793198078729
2200,4.363875274658203,-0.12139755249023439,9.043743438720703,44.70336975193799
2266,4.159550170898438,-0.14864089965820312,8.85768035888672,47.140613868141514
2333,4.342469787597657,-0.28111541748046875,9.073681182861328,48.458295200664914
2400,4.1956251525878905,-0.3523672485351563,8.847950592041016,50.63603535938214
2466,4.253105621337891,-0.41688308715820316,8.760083312988282,52.04857656429958
2533,4.0778201293945315,-0.4463717651367188,8.923842773437501,54.074537918775476
2600,4.0989262390136725,-0.456251220703125,8.761729888916015,56.787341069867935
2666,4.061054992675781,-0.36119888305664066,8.660989379882812,56.86864973204335
2733,4.255650329589844,-0.35700759887695316,9.064999237060547,56.0336958417195
2800,4.213737487792969,-0.2369572448730469,8.782536621093751,56.33556315575272
2866,4.403991851806641,-0.1335223388671875,9.007069702148438,58.13193219355127
2933,4.167932739257813,0.0149688720703125,8.765172729492187,58.928461723138135
3000,4.336931304931641,-0.024998016357421875,8.91860366821289,58.81327013335974
3066,4.080364837646485,0.1586700439453125,8.751251678466797,57.51787023801051
3133,4.398004302978515,0.10373428344726562,8.955127716064453,58.0037679347221
3200,4.108506317138672,0.20537292480468752,8.801846466064454,57.82390917518824
3266,4.1921823120117185,0.21570144653320314,8.468938751220703,57.68670653617394
3333,4.417014770507813,0.16735198974609375,8.886869659423828,57.14178820378298
3400,4.2200244140625,0.3209326171875,8.400980072021484,58.502368621704036
3466,4.515659637451172,0.21091140747070314,9.180708618164063,57.39998519113951
3533,4.465813293457032,0.25357269287109374,8.709937591552734,57.25926326220667
3600,4.4581791687011725,0.23082000732421876,9.102421417236329,56.1915909620558
3666,4.487667846679687,0.2942880249023438,8.910071411132813,56.44085889770985
3733,4.361929321289063,0.17169296264648437,8.781638488769532,56.784810481406325
3800,4.37375473022461,0.20178039550781252,8.625812530517578,56.136314921159745
3866,4.297413482666016,0.15822097778320313,8.643775177001954,53.757788010098466
3933,4.485272827148438,0.031284942626953124,9.094936981201172,58.039130220443525
4000,4.465513916015626,0.017064514160156252,9.037157135009766,61.02052072440393
4066,4.388573913574219,0.017214202880859376,9.226812744140625,59.7550992853246
4133,4.220772857666016,0.08861572265625,8.771908721923829,60.7136533130766
4200,4.240232391357422,0.13861175537109377,8.864266662597657,60.0145764911069
4266,4.234095153808594,0.20043319702148438,8.565188598632814,57.77775423088048
4333,4.444856872558594,0.19070343017578126,8.845555572509767,61.332098695520195
4400,4.340972900390625,0.19609222412109376,8.820108489990234,49.58258001635592
4466,4.494403839111328,0.1047821044921875,8.889114990234376,51.48331135896403
4533,4.465813293457032,0.0544866943359375,8.601413269042968,57.373501055610305
4600,4.235741729736328,0.23321502685546877,8.571325836181641,55.151264262727544
4666,4.322710876464844,0.22168899536132813,8.78343475341797,49.56739747482417
4733,4.334536285400391,0.27647506713867187,8.795858917236329,54.04495040081544
4800,4.2926234436035156,0.3543132019042969,8.970395965576172,51.63793266912876
4866,4.366869049072266,0.31569351196289064,8.694220275878907,54.13108565355137
4933,4.4158172607421875,0.24099884033203126,8.752149810791016,57.06757882333447
5000,4.437522125244141,0.28231292724609375,8.907377014160156,47.2775265980976
5066,4.424349517822266,0.3588038635253906,8.69242401123047,59.60249530679593
5133,4.099824371337891,0.6017486572265626,8.67041976928711,50.42843172687297
5200,4.379293212890625,0.7137158203125,8.898395690917969,45.80297588436571
5266,4.645140380859376,0.787811737060547,8.617280273437501,52.1078921862354
5333,4.980742492675781,0.8178991699218751,8.538544006347657,51.91020419152598
5400,5.1677037048339844,0.4734654235839844,8.757388916015625,51.33867698084205
5466,4.883594512939453,0.42122406005859375,9.148525543212891,51.40413757591074
5533,4.931045837402344,0.5674699401855469,9.220974884033204,51.35908279619304
5600,4.542753295898438,0.501606903076172,9.154363403320312,54.84181638207219
5666,3.8742434692382814,0.5873785400390625,9.64564178466797,57.135577401359924
5733,3.432961120605469,0.9440867614746095,9.161548461914062,57.63449707744183
5799,3.5489698791503907,1.0111473083496094,9.006920013427735,49.84234684817173
5866,2.614014129638672,1.4337185668945314,8.798403625488282,55.85916217763422
5933,4.160897369384766,0.8291258239746094,8.225395202636719,48.9994081924294
5999,3.6748580932617188,0.45220962524414066,8.805289306640626,56.51357498124854
6066,6.816375274658204,0.6741979980468751,8.319549407958984,58.20087121834107
6133,5.117408294677735,0.6282435607910156,8.750952301025391,56.330642726914995
6200,4.736600189208985,0.6002517700195312,8.8472021484375,63.95910069951812
6266,4.620591430664063,0.9604028320312501,8.68673583984375,64.65185738165559
6333,3.650009765625,1.2136761474609377,8.655450897216797,58.27333080338949
6400,4.305197296142579,1.0443782043457033,8.917406158447266,57.502074471790266
6466,4.2432261657714845,1.1454180908203127,8.728648681640625,49.558560488941445
6533,4.262236633300781,1.1904743957519532,8.848249969482422,52.94754924991294
6600,4.386328582763672,1.0340496826171877,8.740623779296875,55.017492010200726
6666,4.648732910156251,1.088386688232422,8.886270904541016,53.855258412465865
6733,4.435725860595704,0.9770182800292969,8.956325225830078,63.784249753668746
6800,4.334835662841797,1.1359877014160156,8.991053009033203,62.38948146763207
6866,4.0285725402832036,1.2409194946289064,8.511001281738281,59.81170531468376
6933,4.222419433593751,0.8815168762207032,9.377100219726563,54.661065680122796
6999,4.240232391357422,0.9225315856933595,9.152267761230469,49.64768602237281
7066,4.314777374267578,0.9493258666992188,9.000782775878907,53.86390155356626
7133,4.065096588134766,0.9862989807128907,8.82175506591797,49.59899587865944
7200,4.091591491699219,0.9327104187011719,9.090146942138672,49.97648454896206
7266,4.161645812988281,0.8014334106445313,9.073531494140626,49.74465635737243
7333,4.018693084716797,0.7779322814941406,9.108109588623048,50.50723807024164
7400,3.7110827636718753,0.8683442687988282,8.602610778808595,51.479698760819474
7466,3.460204467773438,0.9707313537597657,9.05122787475586,53.03018846407247
7533,3.8694534301757812,0.7313790893554688,9.504635009765625,47.26914575227837
7600,4.029620361328125,0.71611083984375,8.849447479248047,54.706897375093895
7666,3.7999978637695313,0.83107177734375,9.196725311279298,52.063211538655196
7733,3.886667633056641,0.85502197265625,8.966504058837891,55.923344520781825
7800,3.226839752197266,1.1135343933105468,9.866282958984376,54.46434639107401
7866,3.4290692138671877,0.7762857055664063,8.842561798095703,51.19054535895347
7933,3.6241136169433594,0.8048762512207032,9.176966400146485,58.197985154026355
8000,3.7149746704101565,0.6385720825195312,9.273066558837892,60.472370840682494
8066,3.6880307006835937,0.6852749633789063,9.276958465576172,53.95356102339639
8133,3.7881724548339846,0.5906716918945313,9.53981185913086,56.46413529599599
8200,3.5401382446289062,0.7885601806640625,8.996890869140625,61.35014278068567
8266,3.1692095947265626,0.7860154724121095,9.473350067138673,57.56427657723873
8333,3.776646423339844,0.4471202087402344,9.508227539062501,63.526781030296966
8400,3.92543701171875,0.29294082641601565,9.886041870117188,64.42993093275024
8466,3.515888671875,0.55803955078125,8.644972686767579,59.11295601870834
8533,3.7770954895019533,0.4206253051757813,9.316176910400392,58.813698185978694
8599,3.842509460449219,0.790206756591797,7.219337310791016,58.570760663596545
8666,4.101620635986328,0.3165916442871094,9.205856323242188,63.32485320791902
8733,4.093836822509766,0.12079879760742188,8.972491607666017,65.76860810426935
8800,3.6660264587402347,0.3523672485351563,9.488618316650392,62.644676499634116
8866,3.506458282470703,0.2089654541015625,9.35210220336914,62.88430106660832
8933,3.476071472167969,0.15837066650390627,9.180708618164063,63.56099317535441
9000,3.5015185546875003,-0.05433700561523438,8.996890869140625,60.40112394848373
9066,3.68593505859375,-0.34667907714843754,9.112151184082032,58.19260893893713
9133,3.643872528076172,-0.23231689453125,9.238937530517578,56.6814260635794
9200,3.7485049438476565,-0.30192214965820313,8.982071685791016,50.491908784167954
9266,3.922592926025391,-0.35206787109375004,9.26677963256836,56.005786952769306
9333,3.7187168884277346,-0.6125262451171876,9.249415740966798,53.045745349496144
9400,3.5284625244140626,-0.40206390380859375,9.203910369873048,47.788166585732206
9466,3.822002105712891,-0.48020141601562505,9.185648345947266,47.96518828771489
9533,3.3914973449707033,-0.143701171875,8.379275207519532,50.717605350833466
9599,3.5917808532714846,-0.219144287109375,8.559500427246094,51.592934172227444
9666,4.001179504394531,-0.5110372924804688,8.412356414794923,55.62041733956467
9733,3.8122723388671877,-0.24998016357421876,8.736881561279297,54.422900177536164
9800,3.8044885253906253,-0.36718643188476563,9.235943756103516,53.918010667301104
9866,3.539539489746094,-0.3423381042480469,9.237290954589843,49.345388488513265
9933,4.170477447509766,-0.3998185729980469,9.23280029296875,47.56582863977336
10000,4.067042541503906,-0.28156448364257813,9.388775939941407,54.52504039568205
10066,3.9836659240722656,-0.5057981872558595,9.328301696777345,59.353717165811474
10133,3.9377114868164065,-0.7104226684570313,9.16424285888672,55.53764125287286
10200,3.7341348266601564,-0.9120533752441407,8.951834564208985,57.07443275446245
10266,3.7142262268066406,-1.137484588623047,9.144334259033204,56.10219258192173
10333,3.8550833129882816,-1.2988490295410158,8.698112182617187,58.63025891560771
10400,3.471431121826172,-1.6741186523437501,8.522527313232422,59.85096248832373
10466,3.5281631469726564,-1.2091854858398439,7.850125579833985,65.96809243384473
10533,3.5845957946777345,-0.9186396789550781,8.044271850585938,62.257774469161916
10600,3.8405635070800783,-1.2919633483886719,8.127798156738281,57.48391167265056
10666,3.982618103027344,-1.6579522705078127,8.913514251708985,60.35860616679763
10733,4.0179446411132815,-2.1297711181640624,9.320368194580078,59.59233203123942
10800,3.667673034667969,-2.3067031860351563,9.138646087646485,56.99008220568936
10866,3.399430847167969,-2.6012905883789066,9.164093170166016,55.73619940892748
10933,3.5007701110839844,-2.6488916015625,9.357041931152343,63.00392852813608
11000,3.4922378540039065,-2.8122019958496094,9.156159667968751,62.892689103249246
11066,3.4262251281738285,-2.7189459228515624,8.903784484863282,62.54816739381124
11133,3.207829284667969,-2.5068370056152345,8.884175262451173,55.653920424501166
11200,3.087479553222656,-2.182760925292969,8.90992172241211,56.92623988836998
11266,3.3859588623046877,-2.3080503845214846,9.095535736083985,57.560333061538735
11333,3.7949084472656254,-2.4673191833496095,9.037456512451172,58.23811882474733
11400,3.8633161926269532,-2.459385681152344,9.187294921875,57.10911575151862
11466,3.7703594970703125,-2.3101460266113283,9.616751861572267,52.894752363287
11533,3.4001792907714847,-2.460882568359375,8.880433044433595,53.56102378113399
11600,3.483406219482422,-2.245181121826172,9.243577880859375,55.578006425091544
11666,3.319197692871094,-2.2704785156250002,8.96979721069336,54.22271306098495
11733,3.5717225646972657,-2.137405242919922,9.363328857421875,51.770341015448935
11800,3.5022669982910157,-2.0504360961914063,9.164991302490234,51.271501700450344
11866,3.8040394592285156,-1.9622694396972657,9.173373870849609,52.925661709640124
11933,3.7179684448242187,-1.5670912170410156,8.84046615600586,53.54064238787239
12000,4.208648071289063,-0.5551954650878906,9.062155151367188,54.653739274975166
12066,3.9972875976562503,0.2996768188476563,9.015601959228515,56.73964080842946
12133,3.7329373168945312,-0.0173638916015625,9.32231414794922,55.31089154499141
12200,3.6283049011230473,-0.9219328308105469,8.378526763916016,55.411759615964826
12266,3.7417689514160157,-0.6325845336914063,9.098978576660157,54.040687534196366
12333,3.905977478027344,-0.49831375122070315,8.592282257080079,58.69134285985977
12400,3.8637652587890625,-0.2704875183105469,9.24806854248047,60.32790349814772
12466,3.823049926757813,-0.6794371032714844,9.099727020263673,58.63833005128826
12533,3.775598602294922,-0.5894741821289062,9.33668426513672,64.74674945705924
12600,4.0056701660156255,-0.5248086547851563,9.095984802246095,63.73385787911349
12666,4.048930206298828,-0.37676651000976563,9.128916320800782,61.01078969984536
12733,4.108955383300781,-0.5075944519042969,9.081165618896485,62.407326615266086
12800,3.861968994140625,-0.6902146911621094,8.535849609375001,54.87770259651598
12866,4.1112007141113285,-0.552052001953125,9.116941223144531,60.82273965743104
12933,3.8841229248046876,-0.6614744567871094,8.638236694335937,63.869521075341
13000,3.773053894042969,-0.49097900390625004,9.149573364257813,60.59349436351985
13066,3.871399383544922,-0.6399192810058594,8.377029876708985,61.74508705374572
13133,3.8212536621093753,-0.4385879516601563,9.133406982421876,59.51514309643414
13200,3.888164520263672,-0.6218069458007813,9.358688507080078,53.20347801862185
13266,4.050876159667969,-0.4317022705078125,9.111702117919922,58.11528759088504
13333,4.095034332275391,-0.4773573303222656,9.039252777099609,59.88600868286721
13400,3.853436737060547,-0.46119094848632813,9.220226440429688,58.793774772092505
13466,4.135001220703125,-0.4628375244140625,9.188642120361328,58.10359560800223
13533,3.906127166748047,-0.4655319213867188,8.568781127929688,62.49704046522092
13600,4.189038848876954,-0.5135820007324219,9.196425933837892,58.02886558805601
13666,4.013304290771485,-0.6158193969726563,8.531808013916017,56.19531579822768
13733,4.165238342285156,-0.48109954833984375,9.395062866210939,56.87252422903798
13799,4.012106781005859,-0.5977070617675782,8.515342254638671,58.6914367814229
13866,3.8598733520507813,-0.5346881103515625,8.966354370117188,58.08307547117244
13933,3.9651045227050785,-0.6391708374023438,8.502019958496094,58.93740684675075
14000,3.8431082153320313,-0.5285508728027344,8.917855224609376,57.24367635342813
14066,3.9785765075683597,-0.6035449218750001,9.278605041503907,58.882985855186234
14133,3.752696228027344,-0.3737727355957031,8.973838806152344,57.91098791551895
14200,4.128714294433594,-0.4471202087402344,9.366322631835938,58.46541219685246
14266,3.861669616699219,-0.5417234802246094,8.859476623535157,58.83823768499503
14333,4.072131958007812,-0.4589456176757813,9.508526916503907,57.92715888373124
14400,4.114194488525391,-0.5968089294433594,8.671168212890626,59.30587392853842
14466,4.138444061279297,-0.42526565551757817,9.364676055908204,62.59165345195251
14533,4.1721240234375,-0.6340814208984376,8.478967895507813,58.90947219073337
14600,4.17017807006836,-0.42032592773437505,8.80064895629883,59.546365734847654
14666,4.160747680664063,-0.6390211486816406,8.510701904296875,63.385449372358636
14733,3.8178108215332034,-0.5034031677246094,8.825048217773437,60.92804127844451
14800,4.046385498046876,-0.6363267517089845,8.53674774169922,57.54457660173239
14866,3.8351747131347658,-0.5390290832519532,8.919801177978517,58.80452863802277
14933,4.145180053710938,-0.4022135925292969,9.221423950195312,59.50888904838668
15000,3.8517901611328127,-0.45879592895507815,9.005123748779297,59.65264276329201
15066,4.180356903076172,-0.43828857421875,9.275760955810547,57.501757969726754
15133,3.8708006286621095,-0.5126838684082031,9.182205505371094,61.02458404191257
15200,4.152065734863282,-0.4816983032226563,9.293124847412109,66.57104349555043
15266,3.991150360107422,-0.7155120849609375,8.436456298828125,65.14089044274483
15333,4.198918304443359,-0.5312452697753907,9.068142700195313,57.247025795731034
15399,3.925287322998047,-0.6337820434570313,8.470735015869142,59.14647744099683
15466,3.903582458496094,-0.3852987670898438,9.200617218017578,58.19315541882788
15533,3.8887632751464847,-0.6511459350585938,8.567583618164063,56.36713510392734
15600,3.9615119934082035,-0.41852966308593753,9.370813293457031,53.46427306784144
15666,3.8166133117675782,-0.5956114196777345,8.463400268554688,58.48372036565123
15733,4.070485382080078,-0.4486170959472656,9.460626525878906,55.91114715037466
15800,4.258195037841797,-0.5951623535156251,8.657396850585938,58.83415549205911
15866,4.099674682617188,-0.41089553833007814,9.423354034423829,57.12778455903405
15933,4.155957641601563,-0.63468017578125,8.529263305664063,56.65331411040626
16000,3.763174438476563,-0.5739065551757813,8.8376220703125,57.524794537082755
16066,4.001927947998047,-0.6204597473144532,8.437354431152345,55.64259980705838
16133,3.848646697998047,-0.5107379150390625,8.872499542236328,58.056231774049216
16200,3.969295806884766,-0.6249504089355469,8.456065521240236,55.75266380445327
16266,3.9043309020996095,-0.46253814697265627,9.077872467041017,59.36962382165477
16333,4.242477722167969,-0.44083328247070314,9.311536560058594,60.589078846557584
16400,3.8705012512207033,-0.4423301696777344,9.334438934326172,60.775368656635244
16466,4.250111846923828,-0.4836442565917969,9.087452545166016,57.37965888965207
16533,3.9742355346679688,-0.3992198181152344,8.522227935791015,55.98717206546708
16600,4.213138732910156,-0.580642547607422,8.912915496826173,57.68465680970656
16666,3.8050872802734377,-0.5989045715332032,8.529263305664063,62.36816540918268
16733,4.230502624511719,-0.6224057006835938,8.603209533691407,63.74562860829569
16800,3.8202058410644533,-0.58198974609375,8.61488525390625,62.525812086021595
16866,4.065246276855469,-0.4028123474121094,9.393116912841798,63.77513511638049
16933,3.745660858154297,-0.5545967102050782,8.879085845947266,61.901624304352936
17000,4.154760131835937,-0.4547543334960938,9.332642669677735,61.51044543937057
17066,3.8583764648437504,-0.4926255798339844,9.078471221923829,67.03629823907028
17133,4.225113830566406,-0.4303550720214844,9.274563446044922,64.51967021509348
17200,4.066593475341797,-0.6873706054687501,8.461903381347657,60.26857944738545
17266,4.2345442199707035,-0.4822970581054688,9.155710601806641,59.673059580996394
17333,3.9079234313964846,-0.7137158203125,8.498577117919922,63.99524201549292
17400,3.9031333923339844,-0.42421783447265626,9.318272552490235,64.72920777482551
17466,3.8684056091308596,-0.5971083068847657,8.488248596191406,59.429599751866746
17533,3.982767791748047,-0.3896397399902344,9.393565979003906,56.11214386326708
17600,3.8249958801269535,-0.6548881530761719,8.94105697631836,63.02744891521553
17666,4.0188427734375,-0.40071670532226566,9.532626800537109,60.98658951810869
17733,4.156556396484375,-0.6122268676757813,8.677305450439453,53.95183060978988
17800,4.140390014648438,-0.42571472167968755,9.476942596435547,54.67163965969091
17866,4.143982543945313,-0.6765930175781251,8.489296417236329,57.026338489628344
17933,4.219874725341797,-0.5132826232910157,9.042994995117187,55.84154756386772
18000,4.008065185546875,-0.6827302551269532,8.444389801025391,56.397473860121806
18066,3.8300852966308594,-0.4870870971679688,9.131311340332031,57.828050260346146
18133,3.8983433532714846,-0.6740483093261719,8.454568634033203,56.63851630511974
18200,3.8993911743164062,-0.4164340209960938,9.272168426513673,58.38438519912068
18266,4.230502624511719,-0.48618896484375,8.968150634765625,56.6589417041813
18333,4.020639038085938,-0.34817596435546877,9.361682281494142,57.127464812799154
18400,4.229903869628907,-0.568817138671875,8.855734405517579,60.27804461181242
18466,4.052223358154297,-0.6932084655761719,8.630452880859375,57.97738982689195
18533,4.120631103515625,-0.6176156616210938,8.671018524169922,52.90844538698184
18600,3.7847296142578126,-0.6014492797851563,8.766819305419922,60.31803795240111
18666,4.0600071716308594,-0.65863037109375,8.460556182861328,61.835297730048225
18733,3.7806880187988283,-0.520916748046875,9.126221923828126,61.13438274905224
18800,4.243076477050781,-0.4135899353027344,9.27246780395508,60.119280501064274
18866,3.835773468017578,-0.4685256958007813,9.170679473876953,63.09381228323864
18933,4.245022430419922,-0.5066963195800781,9.133706359863282,60.01490543649897
19000,3.9389089965820316,-0.6439608764648438,8.486751708984375,63.34508637679498
19066,4.254901885986328,-0.5381309509277344,9.012608184814454,58.722011572410224
19133,3.9510337829589846,-0.6192622375488281,8.449479217529298,59.32577252432967
19200,4.181404724121094,-0.5068460083007813,8.595725097656251,57.019304653186175
19266,3.8083804321289065,-0.6471043395996094,8.64841552734375,59.310248860640975
19333,4.037703552246094,-0.39577697753906255,9.459429016113281,58.90443934636161
19400,3.742816772460938,-0.5391787719726563,8.907826080322266,65.30971262312599
19466,4.169878692626954,-0.429906005859375,8.973988494873048,63.19600477719397
19533,3.7811370849609376,-0.42661285400390625,8.94539794921875,61.64413533788064
19599,4.386777648925781,-0.46912445068359376,9.049431610107423,59.94239263088349
19666,3.952680358886719,-0.6027964782714844,8.344248046875,59.12731535309448
19733,4.207600250244141,-0.5432203674316407,8.913364562988281,60.330129921593965
19800,3.8191580200195316,-0.6008505249023438,8.563542022705079,58.4600910214548
19866,4.018244018554688,-0.44981460571289067,9.471553802490234,59.18447122373456
19933,3.8249958801269535,-0.5522016906738282,8.764723663330079,56.287556263004035
20000,4.164340209960938,-0.377215576171875,9.328900451660157,58.58274857417256
20066,3.8239480590820314,-0.542322235107422,8.462651824951172,57.6952649685838
20133,4.2098455810546875,-0.45116180419921875,9.256600799560548,60.52561594656004
20200,3.9703436279296875,-0.6715036010742188,8.464298400878906,59.4116843315739
20266,4.277654571533203,-0.4812492370605469,9.041049041748048,58.4857703663268
20333,3.956422576904297,-0.6295907592773438,8.452323303222657,61.67426633210038
20400,3.936064910888672,-0.35042129516601567,9.25719955444336,59.61873189427312
20466,3.899989929199219,-0.6533912658691406,8.590036926269532,61.047663084089514
20533,4.004173278808594,-0.4177812194824219,9.501790924072266,60.55166102206121
20600,3.7735029602050782,-0.5477110290527344,8.80498992919922,59.894578271222144
20666,4.128265228271484,-0.3933819580078125,9.47364944458008,62.946938955112685
20733,4.131857757568359,-0.6420149230957032,8.460705871582032,59.4987624176343
20800,4.236490173339844,-0.42242156982421875,9.317524108886719,56.71741960286383
20866,4.043092346191407,-0.6990463256835938,8.43136688232422,64.40817965078148
20933,4.238436126708985,-0.5096900939941407,9.225465545654297,54.34057668563859
21000,3.8815782165527346,-0.6542893981933594,8.400830383300782,62.660107290454654
21066,3.9567219543457033,-0.41583526611328125,9.320817260742189,59.572748551537785
21133,3.835474090576172,-0.5821394348144532,8.478219451904298,57.937198584780496
21200,4.066443786621094,-0.3573069763183594,9.391470336914063,57.666730483760844
21266,4.219874725341797,-0.5786965942382812,8.595126342773439,56.46003559642629
21333,4.15580795288086,-0.42107437133789066,9.408684539794923,55.88839560733255
21400,4.04324203491211,-0.6524931335449219,8.436156921386718,56.27894063439242
21466,4.285588073730469,-0.4724176025390625,9.148076477050783,54.4628857262959
21533,3.922592926025391,-0.6255491638183595,8.438402252197266,57.10850728644353
21600,3.9674995422363284,-0.4207749938964844,9.237889709472658,55.48060040301635
21666,3.888164520263672,-0.6764433288574219,8.631949768066407,55.808360558919496
21733,4.056115264892578,-0.40430923461914064,9.25959457397461,56.90382166362248
21800,4.195176086425781,-0.5706134033203125,8.654552764892578,55.55310936985444
21866,4.188140716552734,-0.4282594299316406,9.361682281494142,57.563454672463564
21933,4.139940948486329,-0.6228547668457032,8.587641906738282,55.898926592418206
22000,3.8342765808105472,-0.47376480102539065,9.075776824951172,55.791545571624525
22066,4.020938415527344,-0.6361770629882812,8.435857543945312,56.60057774098541
22133,3.9269338989257814,-0.4935237121582032,9.241631927490236,56.58581808930174
22200,3.8323306274414066,-0.6471043395996094,8.95692398071289,56.58841965659817
22266,4.011208648681641,-0.4079017639160156,9.446855163574218,54.44480434044308
22333,4.237088928222656,-0.5809419250488281,8.653355255126954,56.16187639326985
22400,4.149670715332031,-0.39966888427734376,9.354048156738282,57.065488097694
22466,4.172573089599609,-0.6426136779785157,8.518785095214843,56.40564908894384
22533,4.18215316772461,-0.4493655395507813,8.832083587646485,56.050280007665066
22600,4.005071411132812,-0.6759942626953125,8.403075714111328,56.08619086710837
22666,3.829785919189453,-0.4848417663574219,9.255852355957032,56.960058406818575
22733,3.883374481201172,-0.6179150390625,8.309819641113283,56.04305990482649
22800,3.946842498779297,-0.35865417480468753,9.446555786132812,54.83440367908437
22866,4.2574465942382815,-0.532891845703125,8.793014831542969,57.29029456708873
22933,4.00881362915039,-0.4206253051757813,9.598040771484376,56.07760530369426
23000,4.127516784667969,-0.6168672180175782,8.732839965820313,57.27941209298106
23066,4.165986785888672,-0.4032614135742188,8.724457397460938,60.77825218191908
23133,4.124822387695312,-0.6634204101562501,8.398585052490235,65.51624778526443
23200,3.8052369689941408,-0.4441264343261719,8.975036315917968,48.348719319741335
23266,4.034260711669922,-0.683778076171875,8.286318511962891,56.07268397344385
23333,3.860472106933594,-0.45834686279296877,9.224717102050782,57.41496690354586
23400,4.210144958496094,-0.47690826416015625,9.166488189697267,54.18085748212462
23466,3.9447468566894535,-0.40475830078125,9.449998626708984,57.7399111468393
23533,4.246070251464844,-0.5492079162597656,8.964857482910157,56.79426988045307
23600,4.0091130065917975,-0.3320095825195313,8.452772369384766,56.51776003740986
23666,4.2397833251953125,-0.5836363220214844,8.696465606689454,56.99483904833497
23733,3.8559814453125,-0.6572831726074219,8.605155487060546,57.62716065949462
23800,4.108506317138672,-0.6261479187011719,8.662037200927735,58.12891307286363
23866,3.8278399658203126,-0.5710624694824219,8.798403625488282,55.886246028119075
23933,4.071982269287109,-0.6324348449707031,9.409582672119141,56.397543543866526
24000,3.8417610168457035,-0.44158172607421875,8.964707794189454,55.50000747582441
24066,4.234993286132813,-0.42616378784179687,9.373208312988282,56.1913091217696
24133,3.873345336914063,-0.4093986511230469,9.295220489501954,57.9089921769846
24200,4.157304840087891,-0.4822970581054688,8.97024627685547,55.389719058269414
24266,3.845802612304688,-0.6316864013671876,8.434510345458985,57.21691930295854
24333,4.1498204040527344,-0.5598358154296875,8.83567611694336,56.291648572073136
24400,3.8422100830078127,-0.5560935974121094,8.694070587158203,57.36236301740851
24466,4.114194488525391,-0.6376739501953125,9.303603057861329,56.06236217702058
24533,3.8441560363769534,-0.5716612243652344,8.926387481689453,55.10803633294132
24600,4.140090637207032,-0.34817596435546877,9.444160766601563,55.18440235166443
24666,3.9188507080078128,-0.3579057312011719,9.02443359375,54.20254532764845
24733,4.2821452331542975,-0.18112335205078126,9.062903594970704,55.40719788907508
24800,3.783532104492188,0.05313949584960938,8.661288757324218,53.911098489918544
24866,4.015399932861328,0.02005828857421875,9.55852294921875,54.71947059706997
24933,4.286336517333985,0.027692413330078127,8.31161590576172,55.80825794745277
25000,3.9547760009765627,0.2118095397949219,9.40329574584961,54.544408544761
25066,4.261937255859375,-0.034129028320312504,8.777147827148438,54.95355593504713
25133,4.094884643554687,0.38709503173828125,8.983867950439453,54.44433612197177
25200,4.008214874267578,0.06975494384765625,8.882528686523438,63.669314844044045
25266,4.084406433105469,0.25896148681640624,9.248667297363282,64.10616303783465
25333,4.289330291748047,0.046253814697265624,8.988657989501954,55.20569990004172
25400,3.952830047607422,0.21270767211914063,8.926686859130859,60.72721077591539
25466,4.042792968750001,0.13142669677734375,8.894354095458985,58.799458513206
25533,4.394262084960937,0.33799713134765624,8.529263305664063,51.64977077110886
25600,4.37091064453125,0.5411247253417969,8.70679412841797,58.2337118612396
25666,4.475243682861328,0.7581733703613281,8.721763000488282,49.35784279507291
25733,4.712649993896485,0.9324110412597657,8.447982330322265,50.341750780768436
25800,4.7065127563476565,0.9809101867675781,8.522527313232422,50.77593171185736
25866,4.870122528076172,1.0018666076660157,8.726553039550781,51.198495032115176
25933,4.944966888427735,0.9193881225585938,8.525521087646485,52.974694253285584
26000,4.793631591796875,1.0978170776367189,8.405470733642579,52.19076067471123
26066,4.677622833251953,0.8966354370117188,8.716224517822265,50.15217202939048
26133,4.9768505859375,0.7453001403808595,8.446635131835938,57.632617317849764
26200,5.07504638671875,0.544866943359375,7.794141998291016,53.42570710528315
26266,4.8385382080078125,0.4680766296386719,8.40741668701172,53.86828797064406
26333,4.425397338867188,0.71132080078125,7.437134399414063,50.8417217825015
26400,4.613705749511719,-0.6878196716308594,8.991502075195314,58.93893195286754
26466,5.4366943359375,-0.49531997680664064,8.414751434326172,52.7653073433479
26533,5.219645690917969,-1.7236656188964845,9.011260986328125,54.36704778923811
26600,5.776338043212891,-2.235451354980469,9.514813842773439,50.54620714004017
26666,4.189487915039063,-0.8345146179199219,10.124795379638673,49.76524212161707
26733,3.8871166992187502,-0.24459136962890626,9.056317291259766,48.41528399426298
26800,1.0999127197265626,0.7946974182128906,7.857759704589844,63.7306177193443
26866,4.815785522460938,-0.209564208984375,6.719227294921875,59.15413555112843
26933,3.8514907836914065,-0.41808059692382815,6.401737518310547,55.92741750060401
27000,7.041058044433594,-1.2208612060546875,6.5696882629394535,57.805009301886315
27066,6.30608642578125,-0.53887939453125,7.156468048095704,51.52471810336036
27133,6.097420349121094,-0.6743476867675782,8.479566650390625,47.05718353193102
27200,6.017785949707031,-0.49951126098632814,8.368347930908204,46.506959797606115
27266,5.51857406616211,-0.09744735717773438,8.126600646972657,58.11416808083246
27333,5.249733123779297,0.07065307617187501,7.806266784667969,59.51658506021117
27400,5.357209625244141,-0.11241622924804688,6.7421296691894534,62.22974110778572
27466,6.6189358520507815,-0.7655081176757813,10.091414794921876,77.05083590228297
27533,7.306605834960938,-1.7989590454101563,13.308973846435547,65.11729125646207
27600,5.846092987060548,-1.2120295715332032,8.98895736694336,62.43363275489845
27666,5.628744964599609,-0.9361532592773438,7.127278747558594,68.48898439488673
27733,5.591921539306641,-0.9580078125,7.885901184082032,64.06967111914838
27800,4.423750762939453,-0.8723858642578125,7.669750671386719,63.97108842774587
27866,5.078638916015625,-0.5634283447265626,7.9731697082519535,57.83478362596195
27933,4.710554351806641,-0.1646575927734375,8.279732208251954,62.79194300464829
28000,5.6856266784667975,-0.5845344543457032,7.581733703613281,55.689768930815674
28066,4.7734236145019535,-0.7792794799804688,7.907306671142578,55.155440254386114
28133,6.590195617675781,-1.0850935363769532,6.7669779968261725,52.847239246361575
28200,6.802903289794922,-1.7657281494140626,6.8126330566406255,54.76738907318045
28266,6.28977035522461,-1.5473323059082031,8.5023193359375,52.96785810865529
28333,5.967789916992188,-1.465751953125,8.754095764160157,50.383141010179884
28400,4.899012451171875,-0.7945477294921875,8.197104034423829,49.11210893137553
28466,4.724475402832032,-0.5519023132324219,8.312514038085938,41.702910586253935
28533,5.707930297851563,-0.5737568664550782,8.606053619384767,46.97813241837058
28600,5.8898020935058595,-0.7858657836914062,7.454947357177735,53.25104982971408
28666,5.116360473632812,-0.9870474243164064,9.610464935302735,53.905977800100814
28733,5.86106185913086,-1.124461669921875,8.798253936767578,56.96238405394715
28800,5.821843414306641,-1.058448944091797,8.230933685302734,53.73110702440837
28866,5.205874328613281,-0.8271798706054688,7.689808959960938,44.31829978273062
28933,4.690046997070313,-0.5869294738769532,7.676786041259766,46.766844664868984
29000,5.099745025634766,-0.5641767883300781,8.303832092285157,51.93970092259106
29066,4.337829437255859,-0.7539820861816406,8.373736724853517,49.27221465886455
29133,4.671186218261719,-0.11660751342773439,8.52387451171875,57.38976263902665
29200,4.651277618408203,-0.6316864013671876,6.998396759033204,55.840970493752295
29266,4.440066833496094,-0.34143997192382813,7.433541870117188,62.16721549220601
29333,4.8755113220214845,-0.7476951599121094,8.722361755371095,63.303451737564245
29400,4.231251068115235,-0.5727090454101563,8.512947235107422,61.05767959957852
29466,4.595294036865234,-0.8901988220214844,8.874146118164063,62.74728525198938
29533,3.9344183349609376,-0.6448590087890625,8.04487060546875,52.52692870525002
29599,4.161645812988281,-0.4700225830078125,7.8550653076171875,46.974560236820835
29666,4.184847564697266,-0.465831298828125,8.935368804931642,55.46764689120566
29733,4.942871246337891,-0.43828857421875,9.095236358642579,46.53366902145936
29800,4.271816711425782,-0.6248007202148438,9.269923095703126,48.128198062178846
29866,4.365222473144532,-0.4302053833007813,8.162076873779297,54.72959657435467
29933,4.270469512939453,-0.6451583862304687,9.032516784667969,60.68497921962977
30000,4.536017303466797,-0.6728507995605469,9.05886199951172,63.72694249078462
30066,4.007616119384766,-0.3673361206054688,8.764873352050781,57.31496900980094
30133,3.9532791137695313,-0.36284545898437504,8.687783660888673,55.30450722157287
30200,3.114124145507813,-0.3212319946289063,9.509425048828126,49.977139478184256
30266,4.150718536376953,-0.6611750793457032,8.724158020019532,52.46720103107109
30333,3.0627809143066407,-0.5794450378417969,9.193282470703126,49.14464806013312
30400,3.5224749755859377,-0.6090834045410156,8.611442413330078,47.0224954270175
30466,4.207600250244141,-0.9372010803222657,9.365125122070314,51.387572849361476
30533,4.016148376464844,-0.9295669555664063,8.818761291503908,49.90250032927817
30599,4.187092895507813,-1.3427078247070314,8.38301742553711,50.02446857939902
30666,4.055067443847657,-1.2828323364257812,8.522227935791015,52.61279526343574
30733,3.586392059326172,-1.3727952575683595,8.039332122802735,51.981620390460755
30800,4.1182360839843755,-1.3811778259277345,9.291777648925782,51.71293405611465
30866,4.121229858398438,-1.6474740600585938,8.660091247558594,54.82386157490241
30933,4.319567413330079,-1.511107635498047,9.519603881835938,50.13713362225274
31000,4.301305389404297,-1.6091537475585938,9.237141265869141,48.97478636160444
31066,3.7558396911621097,-1.7610877990722658,8.929830322265625,41.7730558434186
31133,4.269122314453125,-1.4748829650878907,9.101972351074219,47.87871195088256
31200,4.029919738769531,-1.7777032470703127,9.250912628173829,57.17664679090851
31266,3.3852104187011722,-1.5176939392089845,8.015681304931642,57.93773627024164
31333,3.753893737792969,-1.7179774475097658,7.8992234802246095,57.62609551176492
31400,3.466790771484375,-1.9664607238769531,8.946445770263672,54.12011740649718
31466,4.421804809570313,-1.8729052734375,9.64040267944336,58.132559800242014
31533,3.496429138183594,-1.9773880004882813,9.797725524902344,64.08892612860078
31600,4.242627410888672,-1.8458116149902344,9.357490997314454,59.01429985072635
31666,3.420686645507813,-1.4627581787109376,8.19620590209961,47.46960964296502
31733,3.5209780883789064,-1.6926800537109377,8.33990707397461,52.59125410037467
31800,3.7354820251464846,-1.9287391662597657,8.94869110107422,56.455617714131506
31866,4.180356903076172,-1.7158818054199219,9.543554077148437,55.51668310262055
31933,3.3557217407226565,-1.8263520812988283,9.144034881591798,54.74621222416885
32000,3.7079393005371095,-2.012564849853516,8.509654083251954,54.39967089827259
32066,3.5366954040527347,-1.8814375305175781,9.05407196044922,51.36679354775754
32133,4.063000946044922,-1.9269429016113282,8.718020782470704,54.221333117543836
32200,4.053720245361328,-1.7890795898437502,9.306746520996095,52.934907244987706
32266,3.8184095764160157,-1.9450552368164062,10.12329849243164,53.37870398407119
32333,3.8043388366699222,-2.0947439575195315,9.27965286254883,49.34240828120124
32400,3.3920960998535157,-2.0625608825683597,9.374106445312501,55.92803865495284
32466,3.689078521728516,-1.921703796386719,8.660540313720704,45.043621053456874
32533,3.850892028808594,-1.9212547302246095,8.614436187744142,47.61499343618133
32600,3.895499267578125,-1.93757080078125,8.126900024414063,47.788455662499985
32666,4.044738922119141,-1.9103274536132813,8.629105682373048,54.253467030491336
32733,3.847299499511719,-1.9462527465820314,9.10870834350586,50.43896465643095
32800,3.8911582946777346,-1.8254539489746096,8.901090087890626,50.693572468797505
32866,3.582799530029297,-1.737436981201172,9.063053283691406,54.2292946121023
32933,3.723656616210938,-1.7616865539550781,8.848399658203125,46.52691047454653
33000,3.8044885253906253,-1.7022601318359376,8.52866455078125,43.7101241688384
33066,3.892954559326172,-1.8143769836425783,8.719367980957031,47.54034735300101
33133,4.041146392822266,-1.6661851501464844,8.631500701904297,45.18013555046075
33200,4.0380029296875,-1.7404307556152345,8.632847900390626,51.91154676480461
33266,3.998485107421875,-1.8720071411132813,9.129814453125,48.97374137307227
33333,4.283941497802735,-2.1107606506347656,9.241182861328125,49.099783517169904
33400,4.078269195556641,-2.162852325439453,8.962163085937501,48.68756082976397
33466,3.600313110351563,-1.9883152770996095,8.868158569335938,47.289702859281235
33533,3.853137359619141,-2.5441094970703126,9.175170135498048,50.758388259746866
33600,3.721710662841797,-2.2731729125976563,8.938212890625,60.933824567922386
33666,3.9760317993164063,-2.2134471130371094,9.27635971069336,60.30507429642026
33733,3.7444633483886722,-2.3113435363769534,8.516090698242188,59.067093651379075
33800,3.799399108886719,-2.1956341552734377,8.920100555419923,51.66610662289432
33866,3.971990203857422,-2.379451904296875,8.547076263427735,51.08524433566731
33933,4.0585102844238286,-2.2589524841308597,8.991053009033203,55.00255690970502
34000,3.8914576721191407,-2.2809567260742187,9.097930755615234,55.33830502509887
34066,3.8206549072265625,-2.0480410766601564,9.176517333984375,54.92166493894078
34133,3.7244050598144534,-2.1845571899414065,8.668324127197266,52.73538306925586
34200,3.912863159179688,-1.9899618530273437,9.285640411376953,54.56801627600892
34266,3.8571789550781252,-2.1920416259765627,8.598718872070313,52.108480201191455
34333,3.8339772033691406,-2.0290306091308596,9.020990753173828,52.81878395640176
34400,3.877386932373047,-2.2311103820800784,8.530161437988282,53.0877564058246
34466,3.8588255310058597,-2.0074754333496094,9.372459869384766,53.04359099340127
34533,3.817361755371094,-2.130070495605469,9.069489898681642,52.932608759080296
34600,3.7976028442382814,-1.8509010314941408,9.327852630615235,54.4200602002963
34666,3.9996826171875,-1.9208056640625002,8.952433319091798,54.852329253713926
34733,4.098327484130859,-1.4079721069335938,9.15271682739258,55.31409935381735
34799,4.417164459228516,-0.5129832458496094,8.953780517578126,54.233638549012404
34866,4.316423950195313,-0.4369413757324219,8.592132568359375,56.776397972796396
34933,4.0583605957031255,-1.0472222900390626,8.607251129150391,54.74701295350747
35000,3.835773468017578,-1.3048365783691407,8.38975341796875,56.120035445745145
35066,4.219725036621094,-0.9072633361816407,8.98701141357422,54.87244460519908
35133,4.032165069580079,-0.5893244934082031,8.553213500976563,55.47850977040871
35200,4.0667431640625,-0.7038363647460938,9.206155700683594,56.268298277851784
35266,3.9233413696289063,-1.1602372741699218,8.65320556640625,51.55065658150255
35333,4.153263244628906,-0.7851173400878907,9.407786407470704,55.96292432912013
35399,4.005819854736329,-0.8659492492675782,8.567583618164063,55.09711813714344
35466,4.172273712158203,-0.7451504516601563,9.32186508178711,55.106951107523734
35533,4.111350402832032,-1.0656340026855469,8.446635131835938,54.746838261515684
35600,4.255650329589844,-0.7475454711914062,8.770262145996094,56.42606953387379
35666,4.158053283691406,-0.9894424438476563,8.435109100341798,57.37090818142997
35733,3.9278320312500004,-0.9009764099121094,8.96171401977539,55.0662948526399
35800,3.9704933166503906,-1.0744656372070314,8.314609680175781,62.70900234957629
35866,3.9832168579101563,-0.7640112304687501,9.072483673095704,58.91949813730345
35933,4.077969818115235,-1.0062075805664064,9.13265853881836,58.28166685901149
36000,3.9868093872070314,-0.8045768737792969,9.200018463134766,57.34506201666833
36066,4.23199951171875,-0.8180488586425781,9.193282470703126,57.73101562414952
36133,4.006568298339844,-0.7357200622558594,9.28638885498047,56.653595663353144
36200,4.20325927734375,-0.9026229858398438,9.082063751220703,52.983464678779654
36266,3.9628591918945313,-0.9898915100097657,8.42807373046875,56.19686947729172
36333,4.2273591613769534,-0.8774752807617188,8.948990478515626,55.60480519380481
36399,3.9917491149902347,-0.948278045654297,8.342601470947265,57.334685140873034
36466,4.274810485839844,-0.9410929870605469,9.244625701904297,54.045121512913205
36533,3.96615234375,-0.9918374633789063,8.330476684570312,54.69089723153034
36600,4.065395965576172,-0.7909552001953125,9.432335357666016,56.33434114658219
36666,3.9441481018066407,-0.9535171508789063,8.52956268310547,54.274049553102735
36733,4.147275695800781,-0.7517367553710937,9.349856872558595,57.49809722133237
36800,4.26552978515625,-0.9087602233886719,8.5693798828125,56.76389954507782
36866,4.201762390136719,-0.7232958984375001,9.394015045166016,56.58427356501814
36933,4.1727227783203125,-0.9874964904785156,8.607849884033204,56.55618583541222
37000,4.164789276123047,-0.7990383911132813,8.660989379882812,56.527770359353376
37066,4.0725810241699225,-0.9955796813964845,8.457412719726562,57.242103107687676
37133,3.913162536621094,-0.909957733154297,8.719966735839844,54.343005804516196
37200,4.078418884277344,-1.033450927734375,8.390052795410156,55.8276880242373
37266,3.89669677734375,-0.8065228271484376,8.810827789306641,54.230278525567016
37333,4.076472930908204,-0.7396119689941406,9.427395629882813,56.40812249302718
37400,3.9511834716796876,-0.8536747741699219,8.985963592529297,57.074092018428644
37466,4.170627136230469,-0.8246351623535156,9.36018539428711,54.767635383160936
37533,3.9213954162597657,-0.7948471069335938,9.228908386230469,56.092293204002885
37600,4.213138732910156,-0.8406518554687501,9.142537994384766,58.489879764760104
37666,4.0300694274902344,-1.0237211608886718,8.175997924804689,50.78507567364714
37733,4.238735504150391,-0.8412506103515626,8.999734954833984,66.43933490072163
37800,4.036206665039063,-1.0577005004882813,8.271349639892579,62.05560534278656
37866,3.9842646789550784,-0.8313711547851563,9.181756439208986,62.53067213925995
37933,3.946692810058594,-1.0183323669433595,8.340505828857422,52.38214265540415
38000,4.006568298339844,-0.7683522033691407,9.379944305419922,57.79866939309265
38066,3.9487884521484378,-0.9331594848632813,8.430468750000001,56.61477610237591
38133,4.094884643554687,-0.6900650024414063,9.41332489013672,52.96298736818887
38200,4.247567138671875,-0.9092092895507813,8.742569732666016,58.01846697654997
38266,4.110751647949219,-0.7776329040527344,9.485325164794922,56.428185386107835
38333,4.122577056884766,-1.0256671142578127,8.838520202636719,55.65295157892045
38400,3.8037400817871094,-0.9789642333984375,8.546028442382813,56.230165702984294
38466,4.080215148925782,-1.01788330078125,8.68523895263672,58.43658140929351
38532,3.830684051513672,-0.9139993286132813,8.58659408569336,55.69940113220818
38599,3.9787261962890628,-1.0457254028320313,8.618328094482422,55.70631657649274
38666,3.926185455322266,-0.9475296020507813,8.664581909179688,56.58591341230925
38733,4.124972076416016,-0.7960446166992188,9.160650329589844,57.27783548522061
38800,3.8419107055664066,-0.8641529846191407,8.66083969116211,55.948509145386744
38866,4.271816711425782,-0.8170010375976563,9.018595733642579,55.48702586926873
38933,4.081861724853516,-0.7753875732421875,8.666228485107423,56.9510588424867
39000,4.247417449951172,-0.7994874572753906,8.9334228515625,55.7326855632881
39066,4.1050634765625,-1.0448272705078125,8.569080505371094,54.78800172603571
39133,4.320315856933594,-0.9002279663085938,9.098978576660157,55.748735607604274
39200,4.04997802734375,-1.0192304992675782,8.710536346435548,54.52042639720513
39266,4.234693908691407,-0.8180488586425781,9.043743438720703,57.11915999862046
39333,4.1782612609863286,-0.959055633544922,8.57222396850586,55.90604456619153
39400,4.314178619384766,-0.7225474548339844,9.139544219970704,57.76573346063487
39466,4.106410675048829,-0.9632469177246095,8.662785644531251,55.71644789026585
39533,4.268673248291016,-0.7696994018554688,9.201365661621095,54.27870571876404
39600,4.234244842529297,-0.985550537109375,8.642278289794922,56.955149477768224
39666,4.3418710327148435,-0.7972421264648438,9.084009704589844,55.86424132312654
39733,4.2309516906738285,-0.9949809265136719,8.544681243896484,56.24265590268553
39800,4.11748764038086,-0.8411009216308594,8.703201599121094,53.658509931779285
39866,4.241429901123047,-0.9934840393066406,8.42373275756836,55.59275662251223
39933,4.118685150146485,-0.89813232421875,8.912616119384767,64.10581883425309
40000,4.156556396484375,-0.8213420104980469,9.049581298828125,57.71788047748074
40066,4.122427368164063,-0.8445437622070313,9.066496124267578,60.496850258235035
40133,4.377347259521485,-0.8164022827148438,8.994944915771486,56.38064738840604
40200,4.12946273803711,-0.7086264038085938,9.158255310058594,55.48497517590425
40266,4.322112121582031,-0.8533753967285157,8.915160827636718,58.15671370528885
40333,4.045637054443359,-1.0571017456054688,8.560847625732423,54.1433479995295
40400,4.201163635253907,-0.9690847778320313,9.02682861328125,56.75989024172628
40466,3.9701939392089844,-0.968785400390625,8.426876220703125,55.28783050643763
40533,4.182452545166016,-0.9870474243164064,8.653804321289062,53.02506256464742
40600,3.9785765075683597,-0.8954379272460938,8.445437622070314,57.37215709015207
40666,4.184997253417969,-0.7198530578613281,9.499395904541016,57.11117713831073
40733,3.9610629272460938,-0.8988807678222657,8.84615432739258,55.90881942219842
40800,4.23484359741211,-0.7846682739257813,9.398356018066407,55.63746801806276
40866,4.038152618408203,-1.012943572998047,8.523126068115236,56.997189504570514
40933,4.345912628173829,-0.8192463684082032,9.201665039062501,55.74045164928786
41000,4.14383285522461,-1.0210267639160158,8.334368591308595,57.43443910030872
41066,4.3788441467285155,-0.8583151245117188,9.022337951660157,53.55298235211169
41133,4.137096862792969,-1.0168354797363282,8.396788787841798,54.7562325351225
41200,4.094734954833984,-0.7879614257812501,9.1441845703125,56.58727630248584
41266,4.071832580566406,-0.9874964904785156,8.4687890625,53.55371052291861
41333,4.176165618896484,-0.7394622802734375,9.287286987304688,56.736741624722214
41400,4.33543441772461,-0.9104067993164063,8.785081329345704,53.68123179900503
41466,4.297563171386719,-0.6635700988769532,9.302405548095704,55.58020592920578
41533,4.305346984863282,-0.9669891357421876,8.568182373046875,57.08639267305004
41599,4.3224114990234375,-0.7708969116210938,9.243128814697267,54.14926575277269
41666,4.2010139465332035,-1.028511199951172,8.54587875366211,57.4183285141466
41733,4.058659973144532,-0.877624969482422,8.858877868652344,55.7694111472138
41799,4.184697875976562,-1.0343490600585938,8.284222869873048,57.888235623137625
41866,4.069736938476563,-0.7674540710449219,8.894054718017578,57.11445306757989
41933,4.193230133056641,-1.0582992553710937,9.157207489013672,55.83666833979055
42000,4.0778201293945315,-0.8170010375976563,9.049431610107423,55.94436751126765
42066,4.3171723937988284,-0.8324189758300782,9.008716278076172,62.20791433147198
42133,4.121978302001954,-0.7776329040527344,9.247918853759765,57.61694849829092
42200,4.360582122802734,-0.8571176147460938,8.91231674194336,59.81973911002022
42266,4.1076081848144534,-1.0195298767089844,8.43570785522461,58.676536583386266
42333,4.3366319274902345,-0.899180145263672,8.654702453613282,54.856646522502544
42400,4.078269195556641,-1.0168354797363282,8.641829223632813,56.82962333544765
42466,4.240232391357422,-0.9812095642089844,9.275760955810547,56.65577238997582
42533,4.028273162841797,-0.9163943481445312,8.841813354492189,62.60346672056497
42600,4.312232666015626,-0.7691006469726563,9.224717102050782,65.37051162948626
42666,4.052672424316406,-0.7485932922363282,9.048533477783204,55.70293031919952
42733,4.39965087890625,-0.8231382751464844,9.002279663085938,56.08726019712286
42800,4.129163360595704,-1.047671356201172,8.299640808105469,57.79239241756302
42866,4.335284729003907,-0.9306147766113282,8.749305725097656,54.10591669883119
42933,3.972738647460938,-0.9888436889648438,8.574319610595703,57.48744497912653
43000,4.321663055419922,-0.9759704589843751,9.395212554931641,55.86354343346868
43066,4.0302191162109375,-0.85981201171875,8.712332611083985,56.13759393203543
43133,4.306544494628906,-0.7006929016113281,9.11978530883789,55.28124482887147
43200,4.0336619567871095,-0.8524772644042969,9.100625152587892,54.69617334081575
43266,4.305346984863282,-0.811761932373047,8.945697326660156,56.998238559617164
43333,4.122876434326172,-0.7755372619628906,8.297694854736328,55.576683782558725
43399,4.325704650878906,-0.9059161376953125,8.682544555664062,54.870294345341634
43466,4.062551879882813,-0.9936337280273438,8.380921783447267,55.46446417105018
43533,4.3260040283203125,-0.9725276184082031,8.504864044189453,55.658371972111965
43600,4.0689884948730475,-0.9443861389160156,8.626111907958984,55.01396154994073
43666,4.238885192871094,-0.7384144592285157,9.31991912841797,53.37181623447573
43733,4.039499816894532,-0.8213420104980469,8.943601684570313,55.07595486712386
43800,4.368815002441407,-0.7988887023925781,9.261241149902345,54.912468007428515
43866,4.105512542724609,-0.6840774536132813,8.365653533935546,56.40823172739143
43933,4.385131072998047,-0.8532257080078125,8.837023315429688,54.619170125848754
44000,4.061504058837891,-1.0407856750488282,8.326584777832032,55.821747644844386
44066,4.311633911132812,-0.9924362182617188,8.730894012451172,57.51862391573361
44133,4.005370788574219,-0.9755213928222657,8.668473815917968,63.15503700335078
44200,4.257147216796875,-0.722098388671875,9.334738311767579,64.6942861732583
44266,3.985911254882813,-0.8331674194335938,8.872649230957032,50.247729130796316
44333,4.324656829833985,-0.7261399841308595,9.275760955810547,54.34859400958586
44400,4.240980834960938,-1.0341993713378907,8.459508361816408,58.09873370690311
44466,4.3207649230957035,-0.8032296752929687,9.013206939697266,53.42183753146024
44533,4.124523010253906,-1.0318043518066407,8.404722290039063,56.487502126980196
44600,4.353995819091797,-0.8846603393554688,9.275162200927735,54.521745182761094
44666,4.078867950439453,-0.9819580078125001,8.412206726074219,54.92617928245323
44733,4.196822662353516,-0.6930587768554688,9.308393096923828,55.90439441371665
44800,4.051025848388672,-0.9536668395996094,8.779542846679687,52.77661922309125
44866,4.2767564392089845,-0.77359130859375,9.267228698730468,56.73810402192281
44933,4.039799194335938,-0.8509803771972657,8.34185302734375,54.545933535495635
44999,4.393663330078125,-0.7976911926269532,9.06514892578125,56.67538869320727
45066,4.16493896484375,-1.009500732421875,8.209977264404298,54.4336626683787
45133,4.426594848632813,-0.8367599487304688,8.954079895019532,56.23352681537992
45200,4.119583282470703,-1.0340496826171877,8.343050537109375,56.62463166787497
45266,4.1341030883789065,-0.7530839538574219,9.325307922363281,55.996953464544575
45333,4.025429077148438,-0.9427395629882813,8.549171905517579,55.17535016827617
45400,4.246519317626953,-0.7298822021484376,9.334289245605468,53.91256295604012
45466,4.033212890625,-0.8587641906738281,8.39454345703125,54.69555468770657
45533,4.308041381835937,-0.7346722412109375,9.128616943359376,53.41258396800895
45600,4.218377838134765,-1.0690768432617188,8.352929992675781,54.13482498213359
45666,4.306993560791016,-0.8399034118652344,8.895701293945313,55.54779803803793
45733,4.1218286132812505,-1.054706726074219,8.368796997070312,53.15653425664059
45800,4.125870208740235,-0.7381150817871094,9.355694732666016,55.61804752622913
45866,4.056863708496094,-0.9369017028808594,8.456215209960938,54.94513573743846
45933,4.23439453125,-0.6768923950195312,9.235345001220704,54.35796603701067
46000,4.00447265625,-0.9175918579101563,8.491990814208984,49.86166882802248
46066,4.282294921875001,-0.738863525390625,9.245074768066408,60.224799225514325
46133,4.2391845703125,-1.0338999938964843,8.384065246582031,66.03329639297031
46200,4.395459594726563,-0.8050259399414063,8.988208923339844,63.258234190027444
46266,4.117637329101563,-1.0156379699707032,8.344248046875,52.029104182969085
46333,4.361629943847657,-0.8969348144531251,9.098379821777344,64.0533201438766
46400,4.073628845214844,-0.9731263732910157,8.735684051513672,57.54456131349522
46466,4.258045349121094,-0.7342231750488282,9.085955657958985,55.181360709434585
46533,4.0725810241699225,-0.9048683166503907,8.92144775390625,53.430342104791976
46599,4.354744262695313,-0.7994874572753906,9.122180328369142,56.88175017399598
46666,4.0884480285644536,-1.0364447021484375,8.377778320312501,52.53088311173667
46733,4.385430450439453,-0.8505313110351563,8.790320434570313,55.37635267784299
46800,4.1023690795898435,-0.9978250122070313,8.375233612060548,55.5313875093698
46866,4.264032897949219,-1.0472222900390626,9.273365936279298,53.94952231861603
46933,3.975582733154297,-0.9114546203613282,8.719667358398437,54.73689836736328
47000,4.272864532470703,-0.7755372619628906,9.297615509033204,54.14679264466648
47066,4.076921997070313,-0.7845185852050781,9.095685424804689,55.57601028250513
47133,4.369413757324219,-0.8547225952148438,9.03012176513672,54.06815997560409
47200,4.095633087158204,-1.0774594116210938,8.434809722900392,54.6552263607778
47266,4.28947998046875,-0.9407936096191407,8.541388092041016,56.145175695287364
47333,4.0380029296875,-0.9870474243164064,8.580756225585938,53.5801674569324
47400,4.325854339599609,-0.7679031372070313,9.303153991699219,55.818836960981024
47466,4.0302191162109375,-0.8566685485839844,8.87923553466797,55.8453701309256
47533,4.398453369140626,-0.7653584289550782,9.122779083251954,55.17686676915243
47600,4.1183857727050786,-0.7923023986816407,9.164691925048828,55.198489863550876
47666,4.342320098876954,-0.9148974609375,8.792266387939453,55.42434510482355
47733,4.027824096679688,-1.030906219482422,8.46923812866211,56.764841834826
47800,4.304149475097656,-0.9895921325683594,8.478518829345704,55.52087552282917
47866,4.000431060791016,-0.9336085510253906,8.628955993652344,54.54668058552086
47933,4.225712585449219,-1.0330018615722656,9.20406005859375,56.18857327685258
48000,4.045487365722656,-0.8939410400390625,9.105564880371094,54.76215530758638
48066,4.325704650878906,-0.8646020507812501,8.993448028564453,55.97017992329927
48133,4.196223907470704,-0.7620652770996094,9.420659637451172,51.90225212921164
48200,4.303401031494141,-0.9755213928222657,8.467890930175782,54.43732241401597
48266,3.982468414306641,-0.9265731811523438,8.642577667236328,55.599365340944836
48333,4.165238342285156,-1.129102020263672,8.225844268798829,64.2927817212721
48400,4.192481689453126,-0.825084228515625,9.010662231445313,62.47901368725371
48466,4.18409912109375,-0.9520202636718751,9.394464111328125,59.149320439854385
48533,4.135300598144531,-0.6397695922851563,9.436526641845704,57.85481455630421
48600,4.204007720947266,-1.1087443542480468,8.510103149414062,54.79405416992304
48666,4.199666748046875,-1.0404862976074218,8.685089263916016,55.20189973626852
48733,4.229305114746094,-1.0777587890625,8.456065521240236,57.24661646702523
48800,4.018094329833985,-0.743653564453125,8.93911102294922,56.81272903527078
48866,4.014651489257813,-0.8987310791015626,8.568930816650392,63.34959530230342
48933,4.245321807861329,-0.8735833740234376,9.386380920410156,63.15875713499614
49000,3.9737864685058595,-0.975820770263672,8.426277465820313,61.99758741524369
49066,4.387975158691407,-0.737666015625,9.4651171875,59.38797824748506
49133,4.295018463134766,-1.0162367248535156,8.575816497802736,58.478760657554076
49200,4.316124572753907,-0.7297325134277344,9.553583221435547,61.00277127289654
49266,4.293222198486328,-1.0635383605957032,8.460256805419922,59.20475004152934
49333,4.2767564392089845,-0.8267308044433594,8.544681243896484,60.10397916318915
49400,4.295168151855469,-1.0424322509765624,8.289761352539063,59.18210206545457
49466,3.992347869873047,-0.9427395629882813,8.53674774169922,56.839363406924576
49533,4.319268035888672,-1.0482701110839845,8.320447540283203,59.537041332681575
49600,3.9582188415527346,-0.8726852416992188,8.553512878417969,59.27602335479585
49666,4.3279499816894536,-0.7226971435546875,9.445358276367188,59.726951917332784
49733,3.9567219543457033,-0.8934919738769531,8.837771759033204,59.8372954944363
49800,4.37614974975586,-0.775986328125,9.342522125244141,59.09286918634396
49866,4.025279388427735,-0.7514373779296876,8.190368041992189,60.61878270954777
49933,4.426145782470703,-0.8640032958984375,9.068591766357422,58.944722476629266
50000,3.986360321044922,-1.0590476989746094,8.275540924072265,58.657836200033906
50066,4.320465545654297,-1.004860382080078,8.401728515625,58.00088545900989
50133,3.9749839782714846,-0.9382489013671875,8.97698226928711,56.59592021300298
50200,4.423002319335938,-0.8126600646972657,9.113348693847657,58.133354193541614
50266,4.106859741210938,-0.7599696350097657,9.466913452148438,57.19249227411617
50333,4.382736053466797,-0.9900411987304688,8.630003814697266,56.460899012744285
50400,4.3771975708007815,-0.9571096801757814,8.682095489501954,56.73612472326482
50466,4.153113555908203,-1.094673614501953,8.226592712402343,54.881754819369064
50533,4.077520751953125,-0.8104147338867188,9.290280761718751,54.85944193631687
50600,3.9812709045410157,-1.0677296447753908,8.733289031982423,56.876413103461125
50666,4.338278503417969,-0.7689509582519531,9.2399853515625,56.456040061582996
50733,4.104315032958985,-1.0666818237304687,8.225544891357423,55.23427780608269
50800,4.423750762939453,-0.9789642333984375,8.489895172119141,55.06360243444736
50866,3.9017861938476566,-0.9710307312011719,8.83328109741211,54.3683822078657
50933,4.05955810546875,-1.0660830688476564,8.884923706054687,55.178040122919604
51000,4.180805969238281,-0.8381071472167969,9.433682556152345,52.248204254004506
51066,4.221221923828125,-0.9433383178710938,8.297395477294922,51.98712057460401
51133,4.3733056640625,-0.827479248046875,8.663085021972657,53.72608258684774
51200,3.988605651855469,-1.0467732238769532,8.659791870117187,52.60429175577934
51266,4.246669006347656,-0.7692503356933594,8.973689117431642,53.12439716337829
51333,4.0549177551269535,-0.8551716613769532,9.46796127319336,53.832946183637105
51400,4.35175048828125,-0.9433383178710938,8.380023651123047,53.08321055115716
51466,4.3445654296875,-0.8026309204101563,9.289382629394531,52.51492214569579
51533,4.055965576171875,-0.9955796813964845,8.577463073730469,52.29976049450373
51600,4.228107604980469,-0.8187973022460938,9.208700408935547,53.53418015772021
51666,4.013603668212891,-0.9036708068847656,9.209897918701172,51.04251463121757
51733,4.411326599121094,-0.8936416625976563,8.586893463134766,51.27791348178668
51800,3.9540275573730472,-0.929267578125,8.990903320312501,53.114126469927534
51866,4.144281921386719,-0.9919871520996094,8.406069488525391,51.1012486752114
51933,4.1799078369140625,-0.8237370300292969,9.365125122070314,53.09815341766164
52000,3.952830047607422,-0.9627978515625001,8.456664276123048,52.61519799921987
52066,4.363575897216797,-0.8086184692382813,8.855584716796875,54.77416474603967
52133,3.95896728515625,-0.9903405761718751,8.631051635742187,53.97164535388298
52200,4.218527526855469,-0.9897418212890625,8.203091583251954,54.86981322042391
52266,3.9380108642578127,-0.8613088989257813,9.477391662597658,55.479592105871866
52333,3.9161563110351563,-0.9636959838867188,8.682095489501954,56.07984432440715
52400,4.336482238769531,-0.8090675354003907,9.387578430175783,54.02251062463189
52466,4.0037242126464845,-0.9830058288574219,8.447832641601563,54.539066856265464
52533,4.35175048828125,-0.8499325561523438,8.796457672119141,53.106805700200425
52599,3.869303741455078,-1.031205596923828,8.776100006103515,53.550221859522935
52666,4.292922821044922,-0.8297245788574219,9.325008544921875,55.34710025523462
52733,3.9519319152832035,-0.8536747741699219,9.43443099975586,53.033148779632185
52800,4.286186828613282,-0.9809101867675781,8.599916381835937,54.071205548909106
52866,4.2186772155761725,-0.7857160949707032,8.77295654296875,56.53105374588765
52933,4.065395965576172,-1.0740165710449219,8.358019409179688,51.84254077666893
53000,4.02123779296875,-0.9042695617675782,9.424701232910158,53.44622133453312
53066,3.7805383300781252,-1.0106982421875002,8.825946350097656,53.6707624226875
53133,4.291875,-0.8649014282226563,9.20450912475586,55.02367024766417
53200,3.8972955322265626,-1.0542576599121094,8.16791473388672,54.04778998907644
53266,4.19846923828125,-0.9882449340820313,8.443341979980469,52.98962181920117
53333,3.873495025634766,-1.0280621337890625,8.993597717285157,53.81351575878672
53400,3.964805145263672,-0.8276289367675782,9.052126007080078,55.77151584162259
53466,4.060456237792969,-0.7967930603027344,9.529782714843751,55.81068576878618
53533,4.153562622070313,-1.0291099548339844,8.342601470947265,55.965652095446146
53600,4.337530059814453,-0.8756790161132812,9.037606201171876,54.019069223452554
53666,3.9091209411621097,-1.0591973876953125,8.270152130126954,56.669501879412884
53733,4.111051025390625,-0.8595126342773438,9.546398162841797,53.444374694015906
53800,3.842509460449219,-0.9515711975097657,9.176966400146485,53.61436950144003
53866,4.228406982421875,-0.8541238403320313,8.962013397216797,49.25198603055123
53933,4.210594024658203,-0.801134033203125,9.307794342041015,54.86533903723345
54000,4.094734954833984,-1.0138417053222657,8.251441040039063,54.98178177203373
54066,4.0495289611816405,-0.8518785095214845,9.469757537841797,54.406273286887156
54133,3.899989929199219,-1.0036628723144532,8.890013122558594,53.469277406924334
54199,4.305796051025391,-0.8357121276855469,9.328451385498047,54.47675773881973
54266,4.040547637939453,-1.0542576599121094,8.40936264038086,55.92461010610508
54333,4.3507026672363285,-0.9030720520019532,8.465346221923829,55.56284404786872
54400,3.939358062744141,-1.0038125610351563,9.071286163330079,54.22614459022255
54466,3.991150360107422,-1.0371931457519532,8.372688903808594,55.750330421803866
54533,4.166884918212891,-0.8496331787109376,9.437424774169923,54.41360450746812
54600,4.14862289428711,-0.9601034545898438,8.391250305175781,62.834192864680666
54666,4.339925079345703,-0.7952961730957032,8.918004913330078,64.38006309144025
54733,3.963607635498047,-1.1066487121582032,8.649463348388672,62.699726793631456
54800,4.221670989990234,-0.83107177734375,9.296268310546875,63.26221126477371
54866,3.9270835876464845,-0.8910969543457031,9.251361694335937,62.59479437485096
54933,4.346062316894532,-0.9830058288574219,8.696016540527344,63.14476070597158
55000,4.203408966064453,-0.8072712707519532,8.540489959716798,64.67095231799121
55066,4.1094044494628905,-1.0210267639160158,8.256380767822266,61.635549251227914
55135,4.001179504394531,-0.9767189025878906,9.293723602294923,63.92489426968609
55200,3.8842726135253907,-1.0844947814941406,8.429121551513672,63.567176898764444
55266,4.2186772155761725,-0.7946974182128906,9.526040496826173,56.67651842233066
55333,3.9761814880371094,-0.8572673034667969,8.177345123291015,64.1235015371991
55400,4.362378387451172,-0.9336085510253906,8.616082763671875,63.71144365284438
55466,3.903732147216797,-1.0362950134277344,8.649613037109376,65.0296255621404
55533,4.067042541503906,-1.1151809692382812,8.290809173583984,60.82872220528099
55600,3.9573207092285156,-0.8460406494140625,9.308542785644532,61.3999488282424
55666,4.253404998779297,-0.9355545043945312,8.777147827148438,59.760559166796085
55733,4.323309631347657,-0.7661068725585938,9.267528076171876,59.24850731010964
55800,4.08874740600586,-1.0364447021484375,8.371641082763672,54.400585431496644
55866,4.371359710693359,-0.8864566040039062,9.289981384277345,54.56379699523584
55933,3.9438487243652345,-1.061143341064453,8.752598876953126,56.83194781352508
56000,4.265380096435547,-0.76880126953125,9.342522125244141,55.63231828520982
56066,3.9574703979492187,-0.7813751220703126,8.986262969970703,55.61368559592212
56133,4.415368194580078,-0.8952882385253906,8.912466430664063,57.00271803346564
56200,3.9103184509277344,-1.0469229125976562,8.674461364746094,55.42766936371188
56266,4.1077578735351565,-1.0042616271972657,8.286168823242187,54.964300604910036
56333,3.9806721496582034,-0.9139993286132813,9.378148040771485,52.80539673643132
56400,3.906127166748047,-1.0089019775390626,8.768016815185547,53.26473092689439
56466,4.22765853881836,-0.7282356262207031,9.38084243774414,56.00791085258909
56533,4.138743438720703,-1.0952723693847657,8.225694580078125,55.666778492104136
56600,4.335883483886719,-0.9120533752441407,8.685089263916016,55.238348770478616
56666,3.9011874389648438,-1.0443782043457033,8.760682067871095,56.485727143838
56733,4.298910369873047,-0.8589138793945313,9.312434692382814,54.85861910795664
56800,3.9818696594238285,-0.7744894409179688,9.215436401367189,65.90669442037088
56866,4.365222473144532,-1.0026150512695313,8.368796997070312,59.32266207560437
56933,4.336781616210938,-0.8881031799316407,9.17382293701172,60.55961331946718
57000,3.989054718017578,-1.0306068420410157,8.28048065185547,58.38039541888016
57066,4.187991027832031,-0.8816665649414063,9.435778198242188,58.790752256386185
57133,3.9477406311035157,-0.9648934936523438,9.007818145751953,56.83279440726576
57200,4.319118347167969,-0.8357121276855469,8.932674407958984,62.3730843156389
57266,3.981719970703125,-1.0958711242675783,8.478369140625,63.98690168720681
57333,4.204157409667969,-1.0837463378906251,8.251441040039063,65.66922429054024
57400,3.937112731933594,-0.846639404296875,9.343120880126953,61.993335644500974
57466,3.9435493469238283,-0.9798623657226563,8.333620147705078,61.179143045895
57533,4.239334259033203,-0.7909552001953125,9.438472595214844,62.77659401637141
57600,4.1433837890625,-1.0252180480957032,8.306825866699219,62.303495332105115
57666,4.3101370239257815,-0.9202862548828126,9.067394256591797,61.30537356625699
57733,3.8957986450195317,-1.0535092163085937,8.490194549560547,59.612288228063676
57800,4.2325982666015625,-0.7557783508300782,9.660161590576172,51.985911131615666
57866,3.9942938232421876,-0.8572673034667969,9.222471771240235,55.725742293249745
57933,4.343068542480469,-0.9096583557128907,8.791517944335938,55.859725568664096
58000,4.211941223144532,-0.7912545776367188,8.780890045166016,54.86207961063905
58066,4.123325500488281,-1.0614427185058595,8.346493377685547,57.88513406205924
58133,3.9972875976562503,-0.8672964477539062,9.162895660400391,57.73121333778751
58200,3.898642730712891,-0.9993218994140626,8.491392059326172,55.76873236704301
58266,4.374652862548828,-0.7653584289550782,9.116641845703125,54.761545983232274
58333,4.084406433105469,-0.9333091735839845,8.482859802246095,53.26612328360285
58400,4.3629771423339845,-0.8752299499511719,8.790021057128907,62.66465954898926
58466,3.9787261962890628,-1.08973388671875,8.574618988037109,60.43814023673139
58533,4.224814453125,-1.0536589050292968,8.258027343750001,61.272801012741084
58599,4.026776275634766,-0.8247848510742188,9.153315582275392,56.50273516639793
58666,4.450095977783203,-0.950673065185547,8.719966735839844,59.39168180849503
58733,4.286635894775391,-0.820294189453125,9.282047882080079,62.61897783237657
58800,4.098327484130859,-1.0327024841308594,8.258326721191407,59.1565938447392
58866,4.3453138732910155,-0.9238787841796875,9.347461853027344,60.818317476094926
58933,3.9784268188476566,-0.9849517822265625,8.644523620605469,60.27391200184123
59000,4.348457336425781,-0.7548802185058594,9.153614959716798,57.89453084157729
59066,4.019740905761719,-0.8650511169433595,9.268126831054689,63.01081456511092
59133,4.315226440429687,-0.9431886291503907,8.666378173828125,66.88664310801927
59200,3.9522312927246097,-1.0412347412109375,8.815917205810548,68.78408956192284
59266,4.1338037109375,-1.0621911621093751,8.152197418212891,66.53084812424646
59333,4.067940673828125,-0.7545808410644531,9.254654846191407,64.78096741882487
59400,3.883075103759766,-1.0057585144042969,8.67760482788086,64.01443278770468
59466,4.299209747314453,-0.8279283142089844,9.412726135253907,65.22748002963579
59533,4.028273162841797,-1.0291099548339844,8.275840301513671,67.12983205969316
59600,4.300556945800781,-0.9057664489746095,9.092991027832031,66.5625923500847
59666,3.951482849121094,-1.038240966796875,8.49318832397461,61.74506671263504
59733,4.220174102783203,-0.7432044982910156,9.478888549804688,57.40521375392245
59800,3.9517822265625,-0.8458909606933595,9.332043914794923,59.446015933328844
59866,4.339925079345703,-0.93645263671875,8.770262145996094,59.23442981497934
59933,4.25400375366211,-0.8270301818847656,9.557175750732423,56.325433326844006
60000,4.096980285644531,-1.0650352478027345,8.299491119384767,56.18953415156995
60066,4.0073167419433595,-0.8431965637207032,9.20121597290039,54.59006276544891
60133,3.943399658203125,-1.0719209289550782,8.604407043457032,55.569679089568645
60200,4.276906127929688,-0.8087681579589844,9.497000885009767,54.975101633641295
60266,4.0231837463378906,-1.0975177001953125,8.12585220336914,53.14263386042388
60333,4.277355194091797,-0.9247769165039063,8.552315368652344,54.83561623629858
60400,3.9278320312500004,-1.0219248962402345,8.622369689941406,55.32026549072705
60466,4.143533477783203,-1.1237132263183593,8.212821350097657,55.685384651486316
60533,3.9772293090820314,-0.8346643066406251,9.396260375976563,59.68071808689249
60600,4.266278228759766,-0.9764195251464844,8.489895172119141,54.982567806677224
60666,4.325554962158203,-0.8732839965820313,9.402247924804689,49.66230930012665
60733,4.027674407958985,-1.0413844299316406,8.18333267211914,58.64227985438845
60800,4.059707794189453,-0.8018824768066407,9.445358276367188,61.08590390660321
60866,3.928879852294922,-1.038240966796875,8.535999298095703,61.98650764900127
60933,4.193379821777344,-0.775986328125,9.498497772216798,57.932978585525206
61000,3.9835162353515625,-0.8375083923339844,9.438622283935548,61.32938144786436
61066,4.245920562744141,-0.9544152832031251,8.779093780517579,64.44900980013905
61133,3.798201599121094,-0.9568103027343751,8.509205017089844,62.348084871139264
61200,4.0380029296875,-1.0623408508300782,8.286019134521485,57.59895128925733
61266,3.9715411376953127,-0.8625064086914063,9.418713684082032,59.56743585726876
61333,3.866309967041016,-1.0425819396972658,8.822503509521486,60.15570144430966
61400,4.2583447265625,-0.8008346557617188,9.711953887939453,58.34388909363871
61466,4.0812629699707035,-1.1079959106445314,8.157735900878906,59.01180872827144
61533,4.306394805908203,-0.877624969482422,8.836873626708984,62.86600387347736
61600,3.9963894653320313,-1.0973680114746094,8.685388641357422,64.80737295004185
61666,4.319417724609375,-0.8270301818847656,9.195527801513672,59.49201608854557
61733,3.968697052001953,-0.8445437622070313,9.419911193847657,56.59088637042495
61800,4.2785527038574225,-0.9828561401367188,8.48555419921875,58.46729779285038
61866,4.305945739746094,-0.8390052795410157,8.79061981201172,56.94948988959733
61933,3.9857615661621097,-1.0524613952636719,8.343050537109375,54.848960508555905
62000,4.130211181640625,-0.8943901062011719,9.467811584472656,56.630164431202495
62066,3.9447468566894535,-1.0084529113769531,8.954079895019532,55.51650020148361
62133,4.295467529296875,-0.8851094055175782,8.95587615966797,57.65597035542412
62200,3.9318736267089847,-1.0523117065429688,8.362809448242189,56.55731821260845
62266,4.181554412841797,-1.075214080810547,8.156538391113282,55.17744689378227
62333,3.9011874389648438,-0.91250244140625,9.188642120361328,57.423818008957106
62400,3.899840240478516,-1.0876382446289063,8.82849105834961,56.332017370826854
62466,4.204756164550782,-0.8297245788574219,9.51017349243164,54.29613412727112
62533,4.097579040527344,-1.0014175415039064,8.164771270751954,53.86896515240331
62600,4.363875274658203,-0.9241781616210938,8.843459930419922,56.8529109224854
62666,3.8971458435058595,-1.0529104614257814,8.520132293701172,56.1747633547791
62733,4.106111297607422,-1.0240205383300782,9.465266876220703,55.09561372878216
62800,4.006717987060547,-0.8837622070312501,9.338779907226563,55.75957573094988
62866,4.278852081298829,-0.9187893676757813,8.709039459228515,53.27203582459978
62933,4.236639862060547,-0.771046600341797,9.158404998779297,62.02313092662166
63000,4.061653747558594,-1.0749147033691406,8.236621856689453,65.81632037622836
63066,4.071533203125,-0.8324189758300782,9.539662170410157,62.23731584965303
63133,3.8377194213867187,-0.9009764099121094,9.092242584228517,63.78369552768071
63200,4.328399047851563,-0.9596543884277344,8.965156860351563,57.35601294697911
63266,4.1529638671875,-0.8057743835449219,8.803043975830079,55.92011227445564
63333,4.106111297607422,-0.9731263732910157,8.272397460937501,49.54199077819517
63400,3.9835162353515625,-0.9244775390625001,9.52065170288086,53.42683179369597
63466,3.8719981384277347,-1.0410850524902344,8.647068328857422,52.54664066822397
63533,4.17930908203125,-0.7845185852050781,9.603878631591797,58.06074101800227
63600,4.095184020996094,-1.1302995300292968,8.211623840332031,65.12356817867641
63666,4.318818969726562,-0.9306147766113282,8.874146118164063,58.00635296780014
63733,3.860322418212891,-1.0379415893554689,8.653504943847656,55.86643556790467
63800,4.267176361083985,-0.8363108825683594,9.446555786132812,63.42143655706168
63866,3.945944366455078,-0.9122030639648437,9.236841888427735,58.856975548883185
63933,4.3279499816894536,-0.9545649719238282,8.930728454589843,59.423955189736404
64000,4.209995269775391,-0.757873992919922,9.590256958007814,62.314971152650244
64066,4.173620910644532,-1.1005114746093752,8.198301544189453,57.1933294459309
64133,3.928730163574219,-0.910107421875,8.979526977539063,60.12391739045433
64200,3.9425015258789062,-1.1561956787109375,8.097411346435548,54.53778387280024
64266,4.110152893066407,-0.7729925537109376,9.658065948486328,56.453977044868495
64333,3.903732147216797,-0.9343569946289063,8.61533432006836,56.30453301358095
64399,4.30385009765625,-0.8129594421386719,9.326954498291016,55.25152395028728
64466,3.9917491149902347,-1.0659333801269533,8.263116760253906,53.00234508669294
64533,4.2152343750000005,-0.9903405761718751,8.508606262207032,52.4934269044375
64600,3.905977478027344,-1.0086026000976562,8.498876495361328,55.95465357161605
64666,4.183650054931641,-0.79275146484375,9.552385711669922,55.33966418210095
64733,3.9583685302734377,-0.8915460205078125,8.554560699462892,56.713543010024594
64800,4.1920326232910154,-0.7960446166992188,9.603579254150391,56.333037964607115
64866,3.9486387634277347,-0.9069639587402344,8.73074432373047,56.76279232210736
64933,4.186494140625,-0.8747808837890625,9.512568511962892,57.8356629867408
65000,4.195774841308594,-1.0870394897460938,8.351732482910156,61.5075152908222
65066,4.216581573486328,-0.8635542297363281,9.373807067871095,61.13924309746694
65133,4.162693634033204,-1.059796142578125,8.291258239746094,60.58374391973948
65200,3.9517822265625,-0.8402027893066407,9.002579040527344,61.88317230562429
65266,4.123924255371094,-1.0795550537109375,8.237669677734376,62.95453618832318
65333,4.032763824462891,-0.8659492492675782,9.312135314941406,55.75453422567347
65400,3.9246885681152346,-1.0282118225097656,8.833580474853516,54.20295785159208
65466,4.140689392089844,-0.8297245788574219,9.449848937988282,58.23886808519184
65533,4.206402740478516,-1.0521620178222657,8.43241470336914,60.121447532793496
65600,4.24921371459961,-0.8204438781738281,9.278455352783203,61.04178352045598
65666,4.089795227050781,-1.0948233032226562,8.234226837158204,55.856062219875255
65733,4.258943481445312,-0.9346563720703126,9.259744262695312,56.88150974597626
65800,3.972289581298828,-1.0871891784667969,8.392298126220703,63.36685828333437
65866,4.151167602539063,-0.7809260559082032,9.59010726928711,61.65049844523722
65933,3.965553588867188,-0.9247769165039063,8.626261596679688,58.001628619072
66000,4.263434143066407,-0.7836204528808595,9.4124267578125,58.8892496380393
66066,4.147874450683594,-1.0961705017089844,8.3155078125,59.00929980886899
66133,4.239034881591797,-0.8904981994628907,9.037905578613282,59.83424651919585
66200,4.009262695312501,-1.0855426025390627,8.229137420654297,58.062552904019356
66266,4.217928771972656,-1.0157876586914063,9.477691040039064,55.21821690022953
66333,3.9496865844726563,-0.9547146606445313,8.63688949584961,54.2695671331797
66400,4.222419433593751,-0.7741900634765625,9.300459594726563,53.725180149098364
66466,3.96615234375,-0.8987310791015626,9.19403091430664,53.4385742819645
66533,4.228107604980469,-0.8816665649414063,9.013057250976562,55.06951274030321
66600,4.017196197509766,-1.093027038574219,8.336164855957032,54.64064583485512
66666,4.210594024658203,-1.0279124450683594,8.514893188476563,56.29219936160062
66733,3.9439984130859376,-0.9443861389160156,8.616082763671875,55.37388363536814
66800,4.2731639099121095,-0.7943980407714845,9.230255584716797,61.49076788592051
66866,4.031416625976563,-0.8390052795410157,9.321565704345703,60.39037170468973
66933,4.197870483398438,-0.9433383178710938,8.741372222900392,58.91204501053891
67000,4.205055541992188,-0.8000862121582032,9.446256408691406,58.09080716663618
67066,4.133654022216797,-1.0678793334960939,8.460556182861328,54.78592465915916
67133,3.952380981445313,-0.8264314270019532,9.110055541992187,62.25062335798438
67200,4.032464447021485,-1.0912307739257814,8.344547424316406,64.35726542849126
67266,4.112547912597656,-0.7934999084472657,9.5034375,56.40737764003366
67333,3.949087829589844,-0.9675878906250001,8.500822448730469,64.04680318606817
67400,4.259991302490235,-0.8277786254882813,9.433083801269532,55.94941425669894
67466,4.055666198730469,-1.0969189453125001,8.258326721191407,62.93385097656725
67533,4.267176361083985,-0.9020242309570313,8.918154602050782,66.98704047836604
67600,3.994742889404297,-1.0797047424316406,8.546327819824219,66.31799987888314
67666,4.1570054626464845,-0.8039781188964844,9.402098236083985,65.02399258690033
67733,4.000431060791016,-0.9439370727539063,8.981173553466798,66.77580949016101
67800,4.29471908569336,-0.8596623229980469,9.10825927734375,68.05269852655638
67866,4.078867950439453,-0.7623646545410157,9.326954498291016,68.059610072305
67933,4.2625360107421875,-1.0148895263671875,8.386011199951172,67.11958151770237
68000,3.941902770996094,-0.9764195251464844,8.757388916015625,63.02165709479606
68066,4.061653747558594,-1.0984158325195312,8.204438781738281,62.703370877745954
68133,4.0571630859375,-0.8695417785644531,9.267827453613283,65.28526045064609
68200,4.25115966796875,-0.9092092895507813,8.926387481689453,64.64661502348412
68266,4.161196746826172,-0.729283447265625,9.439969482421876,58.43640088602241
68333,4.230502624511719,-1.0330018615722656,8.455466766357421,54.40565916822492
68400,4.236639862060547,-0.8419990539550781,8.898545379638673,52.53207115615044
68466,4.0495289611816405,-1.1082952880859376,8.23841812133789,56.58057209922238
68533,4.033063201904297,-0.8156538391113282,9.351204071044922,53.1713319999473
68600,3.964805145263672,-1.0255174255371093,8.330626373291016,54.61396469095159
68666,4.136198730468751,-0.7270381164550782,9.394613800048829,56.418685642013465
68733,3.9713914489746096,-0.9569599914550782,8.486302642822267,54.20881146673564
68799,4.244423675537109,-0.8241860961914063,9.347162475585938,55.210569729438255
68866,4.0583605957031255,-1.1082952880859376,8.225095825195313,54.37883683790041
68933,4.277205505371094,-0.9723779296875,8.78208755493164,56.11257970818792
69000,3.9680982971191407,-1.0169851684570312,8.422684936523439,59.03983713402188
69066,4.180057525634766,-0.7402107238769532,9.47799041748047,56.92770272311375
69133,3.955225067138672,-0.9318122863769531,8.891360321044923,54.95742707925074
69200,4.230652313232422,-0.8415499877929687,9.190887451171875,57.80261851426404
69266,4.072880401611329,-0.7997868347167969,8.171656951904298,63.19836559052622
69333,4.268523559570313,-0.9717791748046876,8.90183853149414,60.708181560641876
69400,3.9345680236816407,-0.9972262573242188,8.613687744140625,63.63127217289253
69466,4.155658264160157,-1.063089294433594,8.353977813720704,61.33427765856008
69533,3.9782771301269535,-0.8726852416992188,9.246272277832032,60.50575009525577
69600,4.246219940185547,-0.8994795227050781,9.037456512451172,58.53016430659856
69666,4.144431610107422,-0.7888595581054688,9.586514739990236,57.81185752456234
69733,4.195774841308594,-1.0413844299316406,8.578510894775391,58.24262546790764
69799,4.247417449951172,-0.7816744995117187,8.650810546875,58.39789044199111
69866,4.099674682617188,-1.101409606933594,8.21057601928711,58.32808983144563
69933,4.007017364501953,-0.8482859802246094,9.200617218017578,60.45071719580023
70000,3.9609132385253907,-1.0674302673339844,8.353229370117187,63.86356971741942
70066,4.1588017272949225,-0.7833210754394532,9.340426483154298,59.17020004780751
70133,4.177213439941406,-1.0220745849609376,8.347990264892578,59.28103321978486
70200,4.2870849609375,-0.8126600646972657,9.078770599365235,59.32017414321265
70266,4.045337677001953,-1.09931396484375,8.328231353759765,57.94669952153178
70333,4.186344451904297,-1.000968475341797,8.512498168945314,58.156541083775465
70399,3.932472381591797,-0.983155517578125,8.740324401855469,58.175812339086306
70466,4.255650329589844,-0.8140072631835938,9.406289520263673,55.170480278491574
70533,4.031716003417969,-0.7846682739257813,9.288933563232423,55.94361607172619
70600,4.301604766845704,-0.920885009765625,8.785530395507813,58.16991219108499
70666,3.972738647460938,-1.0636880493164063,8.603059844970703,58.11858411167112
70733,4.136049041748047,-1.068029022216797,8.40981170654297,57.286929674659106
70800,4.007765808105469,-0.9032217407226563,9.117240600585937,54.307891503767
70866,3.9977366638183596,-1.0600955200195312,8.372239837646484,60.77574282404876
70933,4.135450286865234,-0.7563771057128906,9.343569946289064,60.484324804918685
71000,4.281696166992187,-1.0147398376464845,8.503666534423829,59.78164989832948
71066,4.242777099609375,-0.8195457458496094,9.313033447265626,58.99809015897211
71133,4.075574798583984,-1.0940748596191407,8.181087341308594,57.54220628241698
71200,4.031266937255859,-0.8613088989257813,9.267079010009766,61.56474642540016
71266,3.9797740173339844,-1.0174342346191407,8.415948944091797,57.818214111065764
71333,4.200265502929688,-0.7366181945800782,9.421258392333986,54.82970717563813
71400,3.963158569335938,-0.9409432983398438,8.397836608886719,54.17722398902369
71466,4.220174102783203,-0.8521778869628907,9.173074493408203,57.032638575963766
71533,4.003873901367188,-1.0617420959472657,8.321345672607423,57.00153146609335
71600,4.27031982421875,-0.9301657104492188,8.752000122070314,56.381596671426244
71666,3.903432769775391,-0.9668394470214844,8.513096923828126,61.34272119030083
71733,4.137096862792969,-1.0795550537109375,9.334888000488283,56.348378569088176
71800,3.965553588867188,-0.9009764099121094,9.161698150634766,57.46943076364844
71866,4.298760681152344,-0.9063652038574219,8.995843048095704,61.18725237531792
71933,4.192631378173829,-0.784368896484375,9.343270568847657,54.59672879078839
72000,4.229005737304687,-1.0112969970703125,8.510851593017579,61.39594498822052
72066,3.988905029296875,-0.9165440368652344,8.790320434570313,60.189525160054814
72133,4.098327484130859,-1.1120375061035157,8.478668518066407,62.21406151803737
72200,4.132606201171876,-0.8554710388183594,9.254056091308595,58.01145663820381
72266,3.9892044067382812,-1.0338999938964843,8.75469451904297,60.1966452676886
72333,4.301006011962891,-0.8159532165527345,9.135951690673828,61.93133785255949
72400,4.111799468994141,-1.043031005859375,8.422385559082032,57.50387269198656
72466,4.339925079345703,-0.8921447753906251,8.70395004272461,62.106833558644176
72533,3.9938447570800784,-1.0240205383300782,8.652606811523437,59.60575414200726
72600,4.258943481445312,-0.7792794799804688,9.132957916259766,55.62169102642672
72666,4.029470672607422,-0.9029223632812501,9.136101379394532,57.692598734221775
72733,4.355492706298828,-0.8514294433593751,9.030271453857422,50.297205297281465
72800,4.189787292480469,-0.7249424743652344,8.544681243896484,57.454565841486854
72866,4.281396789550781,-0.9750723266601563,8.491691436767578,52.625056697600826
72933,4.009412384033204,-0.9641450500488282,8.922944641113281,53.60422994329249
72999,4.102967834472657,-1.0856922912597657,8.350984039306642,57.35046099898944
73066,4.104464721679688,-0.8659492492675782,9.219477996826173,53.76887056664049
73133,3.9996826171875,-0.9397457885742188,8.734187164306642,55.450843442209276
73200,4.2555006408691405,-0.7453001403808595,9.21843017578125,53.743798640331505
73266,4.248165893554687,-1.0401869201660157,8.470136260986328,55.11554508989805
73333,4.34740951538086,-0.8431965637207032,8.923543395996095,52.43848801707479
73400,4.046385498046876,-1.0916798400878907,8.485853576660157,57.9955695341345
73466,4.180955657958984,-0.779578857421875,9.260941772460939,63.259770100537416
73533,3.9704933166503906,-0.9318122863769531,8.72071517944336,62.46131589738613
73600,4.345463562011719,-0.7607180786132813,8.990603942871093,60.15287227205321
73666,4.069736938476563,-0.869242401123047,8.433013458251953,66.15200062441212
73733,4.252506866455079,-0.9074130249023438,8.544830932617188,52.796601011193054
73800,4.018693084716797,-1.0282118225097656,8.625064086914064,58.06513031539255
73866,4.182452545166016,-1.0427316284179688,8.414901123046876,61.9727394025452
73933,3.9775286865234376,-0.8762777709960938,9.067843322753907,61.88767385446516
74000,4.312232666015626,-0.8205935668945313,9.062903594970704,63.36162430586555
74066,4.087699584960938,-0.7936495971679688,9.353748779296875,61.07779607412304
74133,4.272415466308594,-0.8451425170898438,8.606502685546875,61.96256346578284
74200,3.998485107421875,-0.28216323852539066,8.850345611572266,63.56063928036253
74266,3.6817437744140626,-0.1742376708984375,8.688532104492188,56.71245064789722
74333,4.2255628967285155,0.0053887939453125,9.255702667236328,58.41387629846939
74400,4.738246765136719,-0.12528945922851564,8.915460205078125,58.011930295307614
74466,4.2204734802246096,0.025896148681640627,9.110953674316407,60.772108767181344
74533,5.005441131591797,-0.30835876464843753,8.553812255859375,59.86907374142167
74600,3.5281631469726564,0.135318603515625,8.847351837158204,59.7203056802547
74666,4.2872346496582034,-0.1395098876953125,8.416398010253907,55.83874069856851
74733,4.42165512084961,-0.09894424438476564,8.52432357788086,53.81221609740845
74800,4.205504608154297,-0.15343093872070312,8.40891357421875,57.04237195427841
74866,4.367617492675781,0.13442047119140627,9.154064025878906,55.266610014264415
74933,4.414619750976563,0.04086502075195313,8.363557891845703,60.46919106586911
75000,4.53856201171875,0.549656982421875,8.864566040039064,49.0250872931962
75066,4.5021876525878906,0.7696994018554688,8.488997039794922,55.27669848971495
75133,4.677173767089844,0.9445358276367188,8.744964752197266,50.73564395903303
75200,4.583019561767578,1.1219169616699218,8.719966735839844,55.3268687343096
75266,4.525539093017579,1.3139675903320314,8.785979461669923,60.05383879490152
75333,4.5954437255859375,1.3115725708007813,8.862620086669923,59.578475908299204
75400,4.797373809814453,1.2265493774414062,8.849597167968751,59.60229541541626
75466,4.875810699462891,1.2305909729003908,8.97698226928711,52.93596767448964
75533,4.652026062011719,1.4073733520507814,8.254135437011719,62.872491081310464
75600,4.631219329833985,1.4913487243652344,8.384514312744141,61.44397340584981
75666,4.7363008117675784,1.6387921142578126,8.791967010498047,57.96290492164239
75733,4.802912292480469,1.3427078247070314,9.301058349609375,63.818449125218606
75800,5.23356674194336,1.3730946350097657,8.771759033203125,64.03318569226046
75866,4.397854614257812,1.7173786926269532,8.779542846679687,55.84014435797936
75933,4.652924194335938,1.6428337097167969,8.689879302978516,65.20377795692971
76000,4.578229522705079,1.3406121826171875,9.517957305908203,64.53749667696812
76066,4.535717926025391,1.4868580627441408,8.706494750976564,66.7273820099701
76133,4.745581512451172,1.3036390686035157,8.410709838867188,64.46676473108998
76200,4.844974822998047,1.1816427612304687,8.412506103515625,65.21442375648932
76266,4.953798522949219,1.3859678649902345,8.87444549560547,65.11598102877923
76333,4.484225006103516,1.5109579467773437,8.403973846435548,63.77079754079474
76400,4.568050689697266,1.6902850341796876,8.892258453369141,61.06921135650534
76466,4.729714508056641,1.598675537109375,8.800199890136719,62.29369252794281
76533,4.544399871826172,1.1948153686523437,8.850644989013672,64.07546066910865
76600,4.926405487060547,1.615440673828125,8.598419494628907,62.372744825923164
76666,4.54335205078125,1.7073495483398438,9.174122314453125,58.22485181680924
76733,4.819827117919922,1.773511962890625,9.108858032226562,59.06276844600668
76800,4.796924743652344,1.4973362731933595,8.92039993286133,58.51611757295573
76866,4.644841003417969,1.5515235900878908,8.095166015625,56.25616967794421
76933,4.938230895996094,1.6016693115234375,8.582552490234375,57.32683193010558
77000,4.83075439453125,1.1735595703125001,8.857979736328126,58.57126761016009
77066,4.763095092773438,0.4980143737792969,8.81606689453125,55.68336686514239
77133,4.905149688720703,1.3615686035156251,8.991951141357422,62.32987729189702
77200,4.54769302368164,1.3522879028320314,8.511749725341797,62.576169054732986
77266,4.502337341308594,1.4507830810546876,8.35143310546875,55.575745664619674
77333,4.821473693847657,1.0605445861816407,8.934021606445313,55.33592865418301
77400,4.346661071777344,1.1535012817382813,8.516090698242188,57.337508182622884
77466,4.963228912353516,1.2111314392089845,9.960586853027344,57.92992981054424
77533,4.8332991027832035,0.8488847351074219,10.077643432617188,63.51921283810591
77600,4.735252990722657,1.3132191467285157,8.606352996826173,61.01196297819043
77666,4.371509399414062,0.97716796875,8.473878479003906,64.95772802366707
77733,4.855902099609375,1.0503657531738282,8.731642456054688,60.19576523329336
77800,4.744084625244141,0.8446934509277344,8.613088989257813,61.42982617528148
77866,4.568200378417969,1.3635145568847657,8.966504058837891,64.6302921280065
77933,4.396657104492188,1.2246034240722656,8.905880126953125,64.79847864257523
78000,4.3736050415039065,1.0292596435546875,9.101672973632812,58.617589672720065
78066,4.2767564392089845,1.205892333984375,8.383167114257812,55.03786598763852
78133,4.5514352416992185,1.4853611755371094,8.188272399902344,56.30549907849853
78200,4.4318339538574225,1.234333190917969,8.464298400878906,61.45590108144259
78266,4.62762680053711,1.2534933471679688,8.79017074584961,57.41495115217329
78333,4.481380920410157,0.7670050048828125,9.42964096069336,62.68191240216965
78400,4.249513092041016,1.3988410949707033,8.898994445800781,65.21153780811267
78466,4.325255584716797,0.7384144592285157,9.533375244140625,63.003776299235824
78533,4.557871856689453,0.662073211669922,8.656349029541015,58.32161338072315
78599,4.158053283691406,0.9023236083984375,8.556356964111329,57.871500520490955
78666,4.379891967773438,1.0276130676269533,8.721912689208985,56.436520113817785
78733,4.535867614746094,1.0761122131347656,8.889264678955078,56.08430820655965
78800,4.617897033691406,1.0901829528808595,9.064699859619141,53.74214770713324
78866,4.53422103881836,0.9044192504882813,8.472830657958985,55.3481271074893
78933,4.3828857421875,0.7601193237304688,9.268126831054689,52.02730735016768
79000,4.263434143066407,0.8213420104980469,8.782686309814453,55.78232226348149
79066,4.415517883300781,0.7705975341796876,8.922495574951173,57.137953662622174
79133,4.2854383850097655,1.0256671142578127,8.460256805419922,56.88845897880466
79200,4.243375854492188,1.0150392150878906,8.482859802246095,51.96330966436313
79266,4.421355743408204,1.1118878173828126,8.99180145263672,54.665147053736874
79333,4.5197012329101565,1.0785072326660157,9.583221588134766,56.44836264417065
79400,4.63481185913086,0.3254232788085938,8.605604553222657,60.33355791125302
79466,4.298461303710938,0.6008505249023438,8.163723449707032,58.78094759165159
79533,4.456083526611328,0.6712042236328125,8.784632263183594,53.02536552858892
79600,3.9472915649414064,1.129102020263672,9.051976318359376,61.798021850983595
79666,4.677922210693359,0.4486170959472656,9.389075317382813,58.187127169018154
79733,4.686005401611328,0.9446855163574219,8.319250030517578,55.877334085982504
79800,4.499343566894532,0.7179071044921875,8.66802474975586,59.491908686945045
79866,5.059478759765625,0.7682025146484376,8.967252502441406,67.54707474107339
79933,4.169130249023437,0.316142578125,9.478888549804688,65.89184055144631
80000,3.856879577636719,0.756826171875,8.100704498291016,60.64252024908201
80066,4.162543945312501,0.520767059326172,7.813900909423828,64.77936383847887
80133,4.710254974365235,-0.26075775146484376,8.912765808105469,64.69521881053812
80200,4.875211944580078,0.39951919555664067,10.824889526367189,64.92889820215373
80266,5.15647705078125,0.16914825439453127,9.437724151611329,58.543212266573576
80333,4.456831970214844,0.798589324951172,8.86591323852539,64.83106525829999
80400,4.416715393066406,0.7583230590820312,8.39589065551758,67.73796168974367
80466,4.683011627197266,0.45041336059570314,7.3197784423828125,62.26471788770559
80533,4.853357391357422,0.7887098693847656,9.254954223632813,65.20152609238292
80600,4.992717590332031,0.31090347290039066,9.081914062500001,59.47706173352457
80666,4.005221099853516,0.35057098388671876,8.179141387939454,60.17441968438383
80733,3.5250196838378907,0.4022135925292969,6.986571350097656,56.4798899433751
80800,4.288881225585937,0.26914031982421877,8.895850982666015,56.582346906914026
80866,4.949008483886719,0.1525328063964844,8.707093505859376,57.34974951719514
80933,4.629872131347656,0.27303222656250004,8.058941345214844,60.9672618068165
81000,4.404141540527344,0.5481600952148438,7.464377746582032,65.1896865811444
81066,3.7820352172851566,0.91250244140625,6.178851013183594,62.7789032611718
81133,4.11030258178711,0.9753717041015626,6.935677185058594,58.07252847944429
81200,5.019811248779297,0.8170010375976563,9.070687408447267,56.080593977670134
81266,4.445904693603516,0.22004241943359376,9.044342193603516,62.19944804483206
81333,4.86907470703125,-0.5040019226074219,8.086334381103516,60.284297179471395
81400,4.421056365966797,1.0337503051757813,8.622818756103516,71.39921129107306
81466,4.590953063964844,-0.6453080749511719,12.236005096435548,61.22325667150242
81533,4.283941497802735,-0.6489006042480469,8.573870544433595,67.49858086414707
81600,4.396357727050781,-0.3119512939453125,10.816207580566406,63.660071430800414
81666,4.463867340087891,-0.1926493835449219,9.106612701416015,64.09520770340863
81733,4.276906127929688,-0.1359173583984375,9.542955322265625,63.268094343007206
81800,4.026177520751953,0.0401165771484375,8.67281478881836,57.372220719197486
81866,3.9390586853027347,-0.24264541625976563,8.272098083496093,63.548088944495916
81933,4.626578979492188,0.06002517700195313,8.180488586425781,65.29986341876813
82000,4.151466979980469,-0.6261479187011719,8.607101440429688,61.260329733492554
82066,4.325704650878906,-0.8042774963378907,8.521778869628907,64.42458445779418
82133,3.977828063964844,-0.5921685791015625,8.322992248535156,55.38608918277102
82200,4.471651153564453,-0.23426284790039065,8.513096923828126,59.48259370527257
82266,4.362677764892578,0.049846343994140625,8.619824981689453,55.712195383681625
82333,4.538711700439453,-0.0736468505859375,8.654552764892578,61.11615990355227
82400,4.0107595825195315,-0.11735595703125,7.689808959960938,57.66237309077104
82466,4.490062866210938,-0.0916094970703125,8.016729125976562,63.0152849666701
82533,4.218826904296876,-0.11331436157226563,9.08430908203125,59.425516974762104
82600,4.4212060546875005,-0.2028282165527344,8.455167388916015,61.990532686248976
82666,4.244872741699219,-0.26105712890625,8.647068328857422,64.50145142409723
82733,4.3137295532226565,-0.1287322998046875,9.031019897460938,62.94146450088058
82800,4.009412384033204,-0.25042922973632814,8.417296142578126,60.77673076169543
82866,4.16014892578125,-0.13112731933593752,9.063352661132813,58.69491631745455
82933,4.011957092285156,0.07289840698242188,7.850574645996094,62.46824671601015
83000,4.383634185791016,-0.16540603637695314,8.445437622070314,61.5920824069789
83066,4.417314147949219,-0.26659561157226563,8.462651824951172,58.577581376499026
83133,4.452490997314453,-0.1920506286621094,8.753047943115234,55.64702746977879
83200,4.052373046875,-0.5110372924804688,8.669371948242189,55.02911675168471
83266,3.9558238220214847,-0.6807843017578126,8.521629180908203,51.69715569612273
83333,3.853137359619141,-0.5920188903808594,8.759933624267578,58.98055676828437
83400,4.219725036621094,-0.585582275390625,8.53674774169922,59.10208585000879
83466,4.353247375488282,-0.8671467590332032,8.56653579711914,57.35961990502624
83533,4.071084136962891,-0.7378157043457032,7.327711944580079,61.39589460193835
83600,4.331093444824219,-0.2832110595703125,8.531957702636719,59.03657998283768
83666,3.93501708984375,-0.8295748901367188,8.770112457275392,66.53456036436555
83733,4.017495574951172,-0.5227130126953126,9.180259552001953,59.15430440549337
83800,4.11224853515625,-0.6963519287109375,9.00287841796875,59.970861193450006
83866,3.9760317993164063,-0.488583984375,8.283624114990236,60.46745991575201
83933,3.8037400817871094,-1.1087443542480468,8.694369964599609,63.054188733424056
83999,3.792513427734375,-0.9154962158203126,8.392447814941407,60.02545309606792
84066,4.1817041015625005,-0.5766009521484375,8.985514526367188,60.77223237506513
84133,4.036506042480469,-0.43065444946289066,8.34664306640625,64.46766835068716
84200,4.343218231201172,-0.8229885864257813,9.070837097167969,63.75572356817338
84266,3.7532949829101563,-0.8220904541015626,8.262518005371094,51.26699483839913
84333,4.376598815917969,-0.8960366821289063,8.455915832519532,61.77016189265473
84400,4.497547302246094,-0.9581575012207032,9.041947174072266,64.6780974305332
84466,4.124822387695312,-0.7897576904296876,8.151748352050781,63.9715618195152
84533,4.357139282226563,-1.0319540405273437,8.574768676757813,67.5305990545117
84600,3.9082228088378907,-0.8337661743164063,8.629554748535156,69.76084505889072
84666,4.696782989501953,-0.9136999511718751,7.70477783203125,66.28146474970416
84733,4.105512542724609,-0.8620573425292969,8.421786804199218,64.70728083142106
84800,4.527185668945313,-0.8231382751464844,8.199349365234376,67.0665839341196
84866,4.280648345947266,-0.8496331787109376,8.937614135742187,68.66881944836027
84933,4.0091130065917975,-1.1536509704589843,8.660091247558594,64.94296969157571
85000,3.617078247070313,-0.8687933349609376,8.296946411132813,62.613934944448886
85066,4.225413208007812,-0.9898915100097657,8.793314208984375,53.642788898266
85133,4.216431884765625,-1.319356384277344,8.434809722900392,64.39900537545775
85200,4.306993560791016,-0.9925859069824219,8.982520751953125,50.470800728162565
85266,4.3577380371093755,-1.1511062622070314,8.575666809082032,55.60592818278572
85333,4.2995091247558594,-0.9389973449707032,8.733139343261719,56.26002451349177
85400,4.658163299560547,-1.0042616271972657,8.858279113769532,60.45530295129854
85466,4.612358551025391,-0.8422984313964844,8.727002105712891,57.2946285971279
85533,4.354893951416016,-1.1187734985351563,8.431067504882813,55.62057210650301
85600,4.919669494628907,-0.9145980834960938,8.032296752929687,57.989136281232675
85666,4.2644819641113285,-0.7435038757324219,8.083490295410156,57.84769162175539
85733,4.545896759033203,-1.0783575439453126,8.096363525390625,55.59983188112959
85800,4.883594512939453,-1.256038055419922,8.786727905273438,59.26208638614719
85866,4.780758361816407,-1.5185920715332033,8.395591278076171,61.023633758410575
85933,4.828658752441407,-1.4304254150390625,9.095086669921875,53.07014410072942
86000,5.293741607666016,-1.368753662109375,9.42095901489258,57.51940052838709
86066,5.182971954345703,-1.4721885681152345,9.15271682739258,55.15969166184891
86133,5.43953842163086,-1.4736854553222658,8.757388916015625,59.4269790897264
86200,4.833448791503907,-1.5947836303710938,7.4220158386230475,56.91252169038984
86266,5.372627563476563,-1.5070660400390625,7.485932922363282,64.9255925433806
86333,4.978048095703126,-1.4685960388183594,7.69998779296875,64.51048736413854
86400,4.932093658447266,-1.678759002685547,7.35989501953125,62.20995391703294
86466,5.082081756591797,-1.731449432373047,7.864944763183594,59.37570545777547
86533,5.040318603515625,-1.8134788513183595,7.867489471435547,55.585993833340524
86600,5.513933715820313,-1.7513580322265625,8.3394580078125,57.75786605510139
86666,5.353617095947266,-1.705104217529297,7.9519139099121094,56.775376060485016
86733,5.907016296386719,-1.80823974609375,8.323291625976562,58.67752602566014
86800,5.4832475280761726,-1.6374449157714845,8.477770385742188,61.193126474616676
86866,5.292394409179688,-1.7250128173828125,8.48121322631836,61.181856660520566
86933,5.590125274658203,-1.6730708312988283,7.933202819824219,60.82867196608987
87000,5.100643157958984,-1.6437318420410156,8.701405334472657,60.89555063224962
87066,4.974455566406251,-1.8208135986328127,7.52754638671875,59.49131304804236
87133,5.082381134033203,-1.8317408752441406,7.864495697021485,55.30707999180231
87200,5.30062728881836,-1.8694624328613283,8.392896881103516,58.759087578293226
87266,5.550158386230469,-1.834435272216797,7.954757995605469,58.89365581125595
87333,5.36484375,-1.5965798950195313,7.623646545410157,55.38675509649661
87399,5.731581115722657,-1.8532960510253906,8.291707305908204,56.51335205264499
87466,5.556595001220703,-1.697919158935547,8.17614761352539,57.493118596924035
87533,5.368136901855469,-1.6220269775390626,8.149353332519532,58.91414232130116
87600,5.187612304687501,-1.6762142944335938,8.618477783203126,57.922032208426096
87666,4.995411987304688,-1.922901306152344,8.821455688476563,56.358384767936016
87733,5.068759460449219,-1.4940431213378906,8.395591278076171,62.116047793071765
87800,5.352718963623047,-1.6651373291015625,7.811356201171876,60.9391803816876
87866,5.293591918945313,-1.9017951965332032,8.326135711669922,62.09993279281682
87933,5.304519195556641,-1.5950830078125,8.379873962402344,64.53366507362385
88000,5.726192321777344,-1.21427490234375,8.903784484863282,54.34020900322088
88066,5.3631971740722655,-1.8471588134765626,8.3586181640625,62.34453248195328
88133,5.156027984619141,-1.4000386047363282,8.65604965209961,57.66463412704134
88200,5.3757710266113286,-2.0904029846191405,8.25174041748047,59.079318796012814
88266,5.409750366210938,-1.663341064453125,9.497000885009767,64.1375344022749
88333,5.189707946777344,-1.5940351867675782,8.70918914794922,65.66314434480479
88400,5.665119323730469,-2.0142114257812502,8.706195373535156,63.73694683552408
88466,5.336552581787109,-2.0880079650878907,6.986721038818359,59.39138703876716
88533,5.3000285339355475,-1.4757810974121095,8.931776275634766,60.87983970362572
88600,4.515210571289063,-0.8322692871093751,8.156089324951171,64.70586437217678
88666,6.083349609375,-1.603465576171875,9.682315521240234,61.8144396750844
88733,6.224955139160157,-2.4659719848632813,8.048762512207032,66.59170988370191
88800,5.689668273925782,-1.9835252380371096,8.769962768554688,67.00549783516462
88866,5.146597595214844,-1.009351043701172,6.690786437988281,64.16646996747572
88933,5.233267364501954,-1.5928376770019532,9.129515075683594,61.23484131158391
89000,5.025349731445313,-1.4684463500976563,7.372917938232423,64.99019322772814
89066,5.234464874267578,-1.8384768676757814,7.729925537109375,64.0562839774798
89133,5.1855166625976565,-1.6696279907226563,8.259823608398438,67.41436594819517
89200,5.3528686523437505,-1.4965878295898438,8.887618103027345,65.2863123131543
89266,5.378914489746094,-1.4590159606933595,8.652606811523437,62.95048495714079
89333,5.667514343261719,-0.9645941162109376,8.043673095703125,62.75788470703438
89400,6.207441558837891,-0.7357200622558594,8.101303253173828,53.830250209362795
89466,4.988526306152344,-1.1852352905273438,8.583001556396486,59.40150268134647
89533,5.233716430664063,-1.1720626831054688,7.814499664306641,53.273119258513105
89600,5.370082855224609,-1.6576528930664063,7.497009887695313,55.33163009355555
89666,5.075944519042969,-1.1852352905273438,8.179141387939454,58.10369641970934
89733,4.9960107421875,-1.1738589477539063,8.104147338867188,55.9179338722364
89800,5.6169195556640625,-1.7766554260253906,8.768465881347657,59.92379411700834
89866,5.2751802062988284,-0.9418414306640626,7.9890367126464845,60.05668176180666
89933,5.404660949707032,-1.1856843566894533,9.814640350341797,57.478295861814516
90000,4.462520141601563,-1.0365943908691406,7.30765365600586,65.21783812675507
90066,5.082081756591797,-1.5524217224121095,8.153993682861328,53.48787576887104
90133,5.325774993896484,-0.8241860961914063,7.701634368896484,58.8138808089228
90200,5.7243960571289065,-0.8951385498046875,7.896229705810547,58.78224121363594
90266,5.260061645507813,-1.1693682861328125,8.44289291381836,64.35944013036251
90333,5.786367187500001,-1.3548326110839843,8.08214309692383,61.255749460910785
90400,5.508095855712891,-1.2259506225585939,8.049810333251953,58.83427477603125
90466,5.603148193359376,-1.174457702636719,8.064779205322266,58.48398513486864
90533,5.395679626464844,-1.299148406982422,7.753875732421875,57.80680152929094
90600,5.476361846923829,-1.1548484802246095,8.425379333496094,62.91721072278034
90666,5.529501342773438,-1.0934761047363282,8.359366607666017,59.519288058952746
90733,5.2470387268066405,-1.2816348266601563,8.754095764160157,58.05202390554803
90800,5.233716430664063,-0.9265731811523438,8.611442413330078,58.307759458612345
90866,5.179678802490234,-1.126707000732422,8.000562744140625,58.6519994726401
90933,5.015769653320313,-1.4287788391113283,8.145162048339845,56.76580221106656
91000,5.162165222167969,-0.9632469177246095,8.438402252197266,62.18018718271749
91066,5.213059387207031,-1.4687457275390625,8.41175765991211,63.47250761542273
91133,5.209017791748047,-1.201102294921875,8.019722900390626,55.18142656840723
91200,5.636379089355469,-1.0394384765625,7.899672546386719,54.36804864164575
91266,5.033133544921875,-1.4003379821777344,8.66233657836914,56.07888029431873
91333,5.238506469726563,-1.0591973876953125,7.810009002685547,60.33534727675371
91400,5.196743316650391,-0.9366023254394532,7.907456359863281,59.427494429870265
91466,5.157824249267579,-1.2377760314941406,8.46923812866211,60.274001705737454
91533,5.1976414489746094,-1.0136920166015626,8.33751205444336,64.70097374420548
91600,5.310656433105469,-1.2970527648925783,7.760911102294922,54.10782293089272
91666,5.640570373535157,-1.184187469482422,8.60575424194336,58.19916216354504
91733,5.555996246337891,-1.0148895263671875,7.840096435546875,56.88028068374037
91800,5.6522460937500005,-1.5706837463378907,7.627987518310547,55.57818675423148
91866,5.506898345947266,-1.3454022216796875,8.522078247070313,57.49386111419234
91933,5.732479248046875,-1.0952723693847657,7.858358459472656,52.42737661212881
92000,5.413342895507813,-1.299298095703125,7.372019805908203,56.39362956756809
92066,5.504503326416016,-1.4937437438964845,7.216493225097657,54.61554048098527
92133,5.328319702148438,-1.2039463806152344,7.931406555175782,54.400806152045675
92200,5.4021162414550785,-1.1927197265625,7.345824279785156,52.185853910765616
92266,5.310955810546876,-1.384171600341797,7.373367004394532,60.67265072868628
92333,5.767506408691407,-1.2108320617675783,8.356372833251953,55.952029189172904
92400,5.4601954650878906,-1.302890625,7.947572937011719,59.48192828332693
92466,5.434449005126954,-1.638193359375,8.293503570556641,55.5183654317635
92533,5.599855041503907,-0.9774673461914063,8.270750885009766,61.01419511648653
92600,5.7929534912109375,-1.3980926513671876,7.5435630798339846,63.47016429349412
92666,5.458548889160157,-1.334175567626953,7.846233673095703,63.14666555944318
92733,5.984854431152344,-1.3286370849609375,8.374934234619142,57.33080848950517
92800,5.718408508300781,-1.1096424865722656,7.816295928955078,59.11297199990018
92866,5.775140533447266,-1.5904426574707031,8.145311737060547,58.776108905431954
92933,5.73412582397461,-1.4769786071777344,8.45965805053711,56.60845564481569
93000,5.9348583984375,-1.3564791870117188,9.315428466796876,59.73526851569523
93066,5.6223083496093755,-1.238075408935547,8.92429183959961,57.83822855855845
93133,4.957540740966797,-1.2024494934082033,8.50127151489258,56.90680624076364
93199,5.364244995117188,-1.1647279357910156,7.9484710693359375,50.95842073793675
93266,5.683980102539063,-1.294208679199219,7.216942291259766,58.58494487840504
93333,5.228627014160156,-1.2615765380859376,7.353009338378906,54.17705800350052
93400,5.415438537597656,-1.7248631286621094,7.897726593017579,58.365987865636804
93466,5.7595729064941406,-0.8542735290527345,7.864495697021485,59.83430968536468
93533,5.084327087402344,-0.6493496704101562,8.705446929931641,58.06264110389304
93600,5.584886169433594,-1.3995895385742188,8.051007843017578,58.307265689659616
93666,5.4390893554687505,-1.5127542114257813,9.430239715576173,60.71558742487505
93733,5.611081695556641,-1.5718812561035158,8.556955718994141,60.550532534833124
93800,5.477559356689453,-1.2534933471679688,7.8007283020019536,61.118419705560065
93866,5.753735046386719,-1.5114070129394532,7.772736511230469,57.39948728069443
93933,5.367538146972657,-1.3500425720214844,7.409891052246095,57.2147508173249
94000,5.411546630859375,-1.535357208251953,7.948770446777345,55.936725500380604
94066,5.426814880371094,-0.9728269958496094,7.862549743652344,56.1769738007503
94133,5.235063629150391,-1.469344482421875,8.292904815673829,56.69122474005686
94200,5.857918395996094,-1.6646882629394533,8.432115325927734,55.631308981492694
94266,5.549559631347656,-1.377285919189453,8.357869720458984,57.434917340778206
94333,5.87782699584961,-0.9864486694335938,7.88006332397461,59.9618845783107
94400,5.439388732910157,-1.235979766845703,7.7302249145507815,56.95648882697608
94466,5.799390106201172,-1.3491444396972656,7.803722076416016,59.61897370146163
94533,5.849984893798829,-1.487157440185547,7.735014953613281,64.55261278240359
94600,5.632038116455078,-1.9378701782226564,8.868907012939454,61.6281433767515
94666,5.75328598022461,-1.576970672607422,8.43675567626953,61.172580345530925
94733,5.874683532714844,-1.7149836730957033,8.884774017333985,61.66422712715429
94799,5.810167694091797,-1.6346008300781252,9.258696441650391,61.50899441917494
94866,6.051316223144531,-1.8953585815429688,9.488917694091798,59.03829828547738
94933,5.198689270019531,-1.39869140625,8.581953735351563,58.94953188159708
95000,6.046077117919922,-1.5600558471679689,8.031548309326173,61.81437389847719
95066,6.040089569091797,-1.8958076477050783,7.976313171386719,57.73228230007582
95133,6.131399688720704,-1.9197578430175781,7.524552612304688,54.51161399908063
95200,6.059399414062501,-2.0185523986816407,8.577163696289062,62.13598764619364
95266,6.006708984375,-2.1043240356445314,8.434360656738281,63.71878404479746
95333,5.947432250976563,-1.6399896240234375,7.912695465087891,64.39710918023653
95400,5.302423553466797,-1.6037649536132814,7.153623962402344,59.88701171722248
95466,5.496120758056641,-1.8351837158203126,7.207212524414063,58.318320357124065
95533,5.56842041015625,-2.1275257873535156,7.6721456909179695,56.692108514122694
95601,5.187013549804687,-1.9330801391601564,7.174281005859376,56.8575517018266
95666,5.6293437194824225,-1.7130377197265625,8.374634857177735,56.970889156179894
95733,5.866300964355469,-1.5869998168945314,7.597151641845704,59.403381485232515
95800,5.628744964599609,-1.65016845703125,7.4868310546875,57.02571831503989
95866,5.535638580322266,-1.5364050292968752,7.790699157714844,55.11764414818151
95933,5.682632904052735,-1.9101777648925782,8.381071472167969,54.35498766992371
96000,5.918692016601563,-1.7968634033203126,8.380772094726563,56.533968085467606
96066,6.081403656005859,-1.6197816467285158,8.591234436035156,53.77430109347511
96133,6.228697357177735,-1.3262420654296876,7.82737289428711,55.03124435593841
96200,5.783373413085938,-1.6176860046386718,7.459288330078126,58.99933710539468
96266,5.667364654541016,-1.7196240234375,7.271129608154297,56.452817395768456
96333,5.68143539428711,-1.8878741455078125,7.167545013427735,57.179300037690545
96400,5.417234802246094,-1.8154248046875001,8.22165298461914,57.836170504197824
96466,5.834716644287109,-1.1331436157226562,7.84368896484375,60.95458784619345
96533,5.894442443847656,-1.572330322265625,7.545059967041016,54.452117600308185
96600,6.026168518066407,-1.8193167114257813,8.067174224853517,55.974055597181106
96666,6.026916961669922,-1.774559783935547,8.26611053466797,66.71824813419005
96733,6.081253967285156,-1.8217117309570314,8.237220611572265,61.787816146616386
96800,5.907165985107422,-1.6438815307617187,7.609725494384766,63.19470214053196
96866,6.103407897949219,-1.4676979064941407,8.130193176269533,60.82862172631757
96933,6.153403930664063,-1.7357904052734376,7.985144805908203,54.13593107207503
97000,5.868396606445312,-1.5557148742675782,8.003855895996095,62.56838206310552
97066,6.254892883300782,-1.829645233154297,7.421117706298829,61.51408466106287
97133,5.994883575439453,-1.631906433105469,9.057065734863281,60.98261170601687
97200,6.341862030029297,-1.5428416442871093,8.279881896972658,50.684901324630275
97266,5.531596984863281,-1.8711090087890625,8.428223419189454,63.78975546222527
97333,5.76765609741211,-1.3720468139648438,8.212372283935547,66.46553889683045
97400,6.041736145019532,-1.5940351867675782,7.30001953125,63.57706401364942
97466,5.312452697753907,-1.6621435546875,8.012088775634766,63.167876021924876
97533,6.000721435546875,-2.0836669921875,8.024962005615235,57.663593006562195
97600,5.903423767089844,-1.4672488403320314,8.070916442871095,61.21086885271274
97666,6.1855870056152344,-1.5512242126464844,8.22973617553711,59.299882445630104
97733,5.549559631347656,-1.9408639526367188,8.178243255615234,62.76504771924935
97800,6.248755645751953,-1.8720071411132813,8.384065246582031,56.08403001705062
97866,5.994584197998047,-1.8826350402832033,8.64646957397461,58.794806648645775
97933,5.472769317626954,-1.3584251403808594,7.721542968750001,57.24830265338936
98000,5.851631469726563,-1.4314732360839844,8.211623840332031,50.77313387910789
98066,6.032754821777344,-1.7407301330566407,7.249873809814454,57.31390507617008
98133,5.833668823242188,-1.483864288330078,6.658303985595704,59.846870503277295
98200,5.956263885498047,-2.0071760559082032,8.535699920654297,56.22230606687158
98266,5.716761932373047,-1.6063096618652344,7.642357635498048,54.152254996291234
98333,5.6282958984375,-1.8567388916015626,7.44177474975586,52.25526374698093
98400,6.388864288330079,-2.055675201416016,8.671317901611328,55.66336125344628
98466,5.9832078552246095,-1.8106347656250001,8.347990264892578,49.638397507556405
98533,5.8158558654785155,-1.3093272399902345,7.844287719726563,55.40427086211294
98600,5.814658355712891,-1.3726455688476564,8.690927124023437,58.56855717260526
98666,5.999673614501954,-1.4235397338867188,7.292535095214844,52.70923276298571
98733,5.771398315429688,-1.9068846130371095,7.465126190185547,52.39789817307606
98800,5.7913069152832035,-1.8323396301269532,8.177345123291015,53.19276827398425
98866,6.092031555175781,-1.5235317993164064,8.736582183837891,63.8168732217036
98933,6.045328674316407,-2.0350181579589846,9.595795440673829,65.45897157989286
99000,5.757028198242188,-1.9441571044921877,8.741072845458985,58.59556772313567
99066,6.264472961425781,-1.9993922424316408,9.28504165649414,62.62170725054866
99133,6.430777130126954,-1.7545014953613283,8.187374267578125,58.87602673591334
99200,6.374494171142579,-1.7190252685546876,7.507787475585938,61.74805293012853
99266,5.9516235351562505,-1.3620176696777344,7.320826263427735,58.886859690112196
99333,5.816155242919923,-1.5446379089355469,7.498207397460938,59.54945497233514
99400,5.9956320190429695,-1.5010784912109376,8.737180938720703,63.33323115033275
99466,5.85387680053711,-1.4410533142089845,7.758665771484376,61.88013675408949
99533,6.250851287841797,-1.5646961975097657,8.024662628173829,60.564886435645604
99600,6.470594329833984,-2.0838166809082033,7.970774688720703,60.43814808908576
99666,5.801785125732422,-1.4852114868164064,8.340505828857422,63.89922869637602
99733,6.154751129150391,-1.6642391967773438,6.709497528076172,60.235121353669356
99800,5.686973876953125,-1.776954803466797,6.760391693115235,58.28697267449577
99866,6.660848693847656,-2.0173548889160156,8.379873962402344,59.98496914487014
99933,5.968388671875,-1.7009129333496094,7.1802685546875,62.78170569440042
100000,6.689888305664063,-1.8438656616210938,7.7037300109863285,59.82843581578153
100066,6.432124328613281,-2.1986279296875,8.009993133544922,57.99750522896157
100133,6.153703308105469,-2.146835632324219,8.208929443359375,61.29106682741747
100200,6.195466461181641,-2.0718415832519534,8.932375030517578,55.08667055508837
