relative_time,AccX,AccY,AccZ,DecibelSource
0,-0.7129673767089844,6.039341125488281,7.585326232910156,21.072099696478684
65,-0.4981640625,5.9156982421875,7.234755249023438,21.613680022349747
132,-0.5068460083007813,5.869743804931641,7.3408845520019534,19.030899869919434
199,2.176024932861328,3.3985327148437503,8.011939086914063,21.702617153949575
265,-1.2220587158203127,6.106251983642578,6.989864501953125,16.62757831681574
331,-0.9882449340820313,4.606221313476563,5.503156127929688,30.236639181977935
399,-0.4680766296386719,4.4791355895996094,8.405021667480469,22.55272505103306
465,-2.179018707275391,3.8208045959472656,8.524772644042969,30.195316845312554
531,-1.0829978942871095,4.097579040527344,7.6032888793945315,23.710678622717364
598,-1.8043478393554688,3.6010615539550783,10.449170837402344,21.78976947293169
665,-0.08292755126953126,3.344195709228516,7.380851440429688,20.718820073061256
732,-0.22498214721679688,2.4605831909179687,10.55006103515625,27.015679850559273
799,1.1867321777343751,0.4596940612792969,11.59234359741211,41.55153777765149
865,0.4628375244140625,0.9819580078125001,11.672127685546876,22.85557309007774
931,1.660796356201172,0.19115249633789064,9.66719696044922,23.483048630481605
998,1.4085708618164063,0.14938934326171877,9.346114654541017,21.84691430817599
1065,3.4229319763183597,-1.2687615966796875,8.494535522460938,20.41392685158225
1132,4.030368804931641,-1.9535874938964846,8.839568023681641,21.522883443830562
1198,4.730313262939453,-1.0593470764160158,6.999743957519532,23.909351071033793
1265,4.8190786743164065,-1.234482879638672,9.521849212646485,25.06505032404872
1332,5.88935302734375,-1.0389894104003907,8.471034393310548,19.777236052888476
1398,8.102949829101563,-1.7863851928710939,12.711715850830078,23.80211241711606
1465,9.369017028808594,-0.5348377990722657,14.993870086669922,23.856062735983123
1532,1.8278489685058594,6.504274291992187,10.182425537109376,37.693034601890815
1598,0.32108230590820314,6.747069396972656,14.097384338378907,32.17483944213906
1665,5.6838304138183595,0.6836283874511719,17.094002838134767,36.982745766743676
1731,8.698561248779297,-2.8996202087402345,12.86409896850586,41.196846918240496
1798,8.021818542480469,-5.636379089355469,5.436544647216797,31.522883443830565
1865,1.3043875122070314,-3.369493103027344,-2.1974304199218753,28.893017025063102
1932,4.756359100341797,-2.877765655517578,5.965843963623048,33.038437748886544
1998,6.939269714355469,-0.6668632507324219,3.096909942626953,30.0987563371216
2065,8.185428314208984,-1.0919792175292968,11.930789794921875,31.014033505553307
2132,9.706415405273438,0.5598358154296875,15.811320190429688,33.26130956710794
2198,3.199596405029297,4.602030029296875,7.929310913085938,31.277525158329734
2265,0.4631369018554688,8.809031524658204,10.09785140991211,22.52853030979893
2332,1.1430230712890626,5.793851623535157,7.404053192138672,30.7040732174012
2399,4.435576171875001,2.2242247009277345,14.232702941894532,26.739419986340877
2465,7.0470455932617195,-2.3908282470703126,13.242212677001953,30.902580529313163
2532,1.2877720642089845,-4.5039839172363285,4.162693634033204,36.53405490664501
2598,1.7980609130859375,-3.9915994262695316,-0.33560211181640626,24.377505628203878
2665,7.410340118408204,-0.07529342651367188,3.0466145324707035,15.910646070264994
2733,7.5504487609863284,1.0181826782226564,4.4914100646972654,31.4674801363064
2798,14.205609283447266,-1.9772383117675782,16.958384857177734,27.596678446896306
2865,11.085796966552735,-0.41029678344726567,17.393829345703125,44.39995473953808
2933,5.10902572631836,3.3218920898437503,7.194488983154297,26.009728956867484
2999,-3.916755065917969,9.107810211181642,6.027366027832032,26.848453616444125
3065,2.4408242797851565,9.049880676269531,15.922838287353516,33.829171350875306
3131,6.770271148681641,2.9103977966308596,20.226538696289065,39.60946195733831
3198,12.843441925048829,-0.13621673583984376,23.173610229492187,33.39848783037637
3265,8.641529846191407,-0.18950592041015626,10.857371978759765,32.84430733844519
3332,3.0963111877441407,-4.19846923828125,2.8198361206054687,31.96728722623287
3398,6.861431579589844,-4.408632202148437,-0.08577163696289063,33.845326154942484
3465,6.218368835449219,-4.603377227783203,-0.44457550048828126,26.483600109809316
3532,9.886341247558594,-0.9716294860839845,9.342522125244141,42.233920924487705
3599,8.913963317871094,4.869673461914063,17.204473114013673,33.07709923404807
3665,3.955075378417969,8.079897766113282,12.834610290527344,40.51576958472539
3731,-1.9209553527832033,11.327843627929688,11.726315002441407,35.845573605256746
3798,0.013172607421875001,10.552306365966798,9.841434631347656,25.563025007672874
3865,4.955145721435547,2.2641915893554687,17.745298461914064,33.69030221809153
3932,9.940378875732423,1.197659454345703,13.807137908935548,41.22150319440805
3999,5.4531600952148445,-1.7357904052734376,2.662064208984375,37.39967696759509
4065,-0.0058378601074218755,-4.680766296386719,0.085023193359375,20.374264979406238
4133,4.942871246337891,-3.996838531494141,3.232976989746094,22.624510897304294
4198,8.626560974121094,0.4381388854980469,5.587730255126953,32.18535505216528
4265,11.639944610595704,5.697003021240235,13.166769561767579,26.812412373755873
4332,6.313271484375,7.438780975341797,13.113929443359376,38.383452687759906
4398,1.8988014221191407,11.211385803222656,8.531358947753906,36.24178925748022
4465,-1.05620361328125,11.092982025146485,7.0768336486816406,28.075350280688532
4532,1.8434165954589845,6.297404479980469,16.645685119628908,38.657552240714516
4598,7.865543518066406,3.65958984375,19.774029693603516,43.236645356081
4665,4.658163299560547,0.18082397460937502,6.972650299072266,36.48945182165673
4732,0.36598892211914064,-2.9075537109375,0.6505471801757813,33.84890796530554
4798,5.443280639648438,-5.027445373535157,2.8075616455078127,27.752462597402364
4865,9.554930419921876,-4.750221862792969,1.648671569824219,35.78868328666029
4932,9.2783056640625,-2.5598268127441406,6.1855870056152344,25.865873046717546
4998,15.681390380859376,3.8993911743164062,17.784816284179687,31.225435240687546
5065,10.221793670654298,7.671546936035156,11.005713500976563,45.423772129021806
5132,1.1271560668945313,10.238858184814454,6.239025878906251,32.0303288701471
5198,-0.019309844970703125,10.038874053955078,4.623585205078125,36.014080605346834
5265,1.2985496520996094,4.031266937255859,12.06985061645508,33.6660971039243
5332,14.647490386962891,3.6274067687988283,17.501455535888674,32.34517283512687
5399,11.766880645751954,-1.8739530944824219,11.669882354736329,28.260748027008265
5465,2.0109182739257814,-3.869752807617188,4.312681732177735,19.444826721501688
5532,0.2089654541015625,-4.151466979980469,-7.557334442138672,38.572118423168924
5598,4.805756378173828,-4.856650543212891,1.2439132690429688,29.872192299080048
5665,15.326777801513673,-0.34982254028320314,10.387050018310548,34.577305482459984
5732,14.343173217773439,4.460274810791016,15.526163177490234,21.67317334748176
5798,6.979835357666016,7.780220947265625,9.806407470703126,44.354780541713254
5865,0.22602996826171876,7.595954132080078,7.609276428222657,31.185953652237618
5932,-4.0109092712402346,8.440797271728517,3.5941758728027344,27.05007959333336
5999,0.46523254394531255,6.509363708496094,8.13483352661133,36.54369090975286
6065,17.146992645263673,5.902525634765626,25.520579681396487,35.88159616383092
6132,12.537927246093751,-0.27333160400390627,17.265546112060548,30.696680969115956
6198,1.9803817749023438,-3.7857774353027347,4.282294921875001,42.39549720840473
6265,0.48648834228515625,-4.557572479248047,-3.387455749511719,28.08210972924222
6331,4.278253326416015,-1.7679734802246094,-4.080813903808594,28.260748027008265
6398,4.733606414794922,0.11466156005859375,1.2876223754882814,45.012921021934424
6465,17.55459503173828,5.388644256591797,18.969752197265628,32.20369632451395
6532,13.609099731445314,6.945706329345703,17.55878631591797,49.1836065259081
6598,6.131998443603516,5.818699951171875,5.166805572509766,30.39414119176137
6665,-1.9139199829101563,1.7214202880859375,-4.089346160888672,31.613680022349747
6732,-0.5179229736328125,-0.8758287048339845,-0.44143203735351566,37.39967696759509
6798,4.020489349365235,1.435664520263672,9.078321533203125,47.97433746145376
6865,19.099083251953125,3.969445495605469,19.25640609741211,32.778383330020475
6932,12.886402587890625,-1.3066328430175782,12.655283203125,41.33985746268579
6998,4.634512481689454,-2.868035888671875,2.681074676513672,44.415380387021614
7065,0.6807843017578126,-1.5503260803222656,-3.229683837890625,43.96443460112428
7132,1.428479461669922,0.41628433227539063,-1.4040802001953125,44.204673530762534
7198,6.993756408691406,1.952839050292969,4.22720947265625,51.933556038424115
7265,20.241657257080078,0.42152343750000004,17.824034729003905,32.29425847920695
7332,9.355844421386719,-0.9966275024414063,8.345744934082031,37.827591926239975
7398,6.288123779296876,-0.15013778686523438,3.6583923339843754,35.43322900646912
7465,3.0526020812988284,1.0072554016113282,1.533860321044922,32.571984261393446
7531,0.36359390258789065,2.1842578125000003,0.319735107421875,23.424226808222063
7598,3.357667694091797,1.7113911437988283,1.7934205627441406,32.873537727147465
7665,14.136602783203125,-1.6185841369628906,7.7655514526367195,43.63367502943486
7733,15.12170425415039,-1.4109658813476562,12.467723236083986,35.39953841656397
7798,4.077221374511719,2.7164012145996095,7.761809234619141,29.523080096621253
7865,5.351072387695313,4.539609832763672,3.9592666625976562,30.707764628434347
7932,4.289629669189454,3.9818696594238285,-0.7830216979980469,39.73635773417407
7999,12.818443908691407,-0.2935395812988281,11.222911834716797,37.881683711411675
8065,14.183605041503906,-0.8553213500976563,10.160720672607422,36.27570664180543
8132,7.252717895507812,1.5564633178710938,7.824678497314453,37.430391548049336
8198,4.169429626464844,3.3461416625976566,1.655108184814453,30.24895960107485
8265,3.2715966796875002,2.487078094482422,1.249152374267578,26.99837725867246
8332,1.9285894775390626,2.5066873168945314,1.1112890625,29.98259338423699
8398,16.53895706176758,0.0058378601074218755,10.182425537109376,42.145524552342444
8465,13.488001556396485,-0.9553134155273438,12.821138305664062,34.4216608578472
8532,3.6682717895507815,2.135010223388672,5.730832672119141,35.21007252408604
8598,5.55405029296875,3.6790493774414066,0.29653335571289063,28.813846567705728
8665,6.2797412109375,2.0077748107910156,1.1270063781738282,37.15418322595056
8732,16.021632843017578,-0.47870452880859377,8.506061553955078,32.32996110392153
8798,9.671687622070314,1.4998809814453127,14.174324340820313,42.917017707299806
8865,10.07958938598633,5.772595825195313,2.2483245849609377,25.658478186735177
8932,4.812192993164063,3.926185455322266,6.003266143798829,31.238516409670858
8998,2.1412971496582034,4.411027221679688,3.5522630310058596,33.25310371711061
9065,11.737391967773439,1.2997471618652345,13.04612045288086,45.810161565455545
9132,15.466437377929688,-2.737657012939453,13.179493103027344,39.834909718151664
9198,4.664599914550782,-0.5948629760742188,5.128934326171875,41.59958002678519
9265,6.430178375244141,1.1931687927246095,2.9593460083007814,25.19827993775719
9333,6.7053062438964846,1.5152989196777344,-1.1638298034667969,21.875207208364632
9398,6.594985656738282,0.059725799560546876,-0.15657440185546875,20.606978403536118
9465,10.51697982788086,-3.0169761657714846,3.4230816650390627,30.187004986662433
9532,16.13853973388672,-1.9257453918457033,17.552798767089843,28.90979596989689
9598,3.06322998046875,3.6812947082519534,0.7235952758789063,37.191654940892136
9665,3.4980757141113283,3.4337095642089848,6.5045736694335945,18.325089127062363
9732,4.956792297363282,2.2637425231933594,5.6452107238769536,20.21189299069938
9798,5.1696496582031255,-0.10044113159179688,5.158123626708985,34.6553155697355
9865,11.907138977050781,-3.653452606201172,2.3772065734863284,29.37016107464814
9932,12.738360443115235,-4.175417175292969,9.614356842041015,19.590413923210935
9999,5.270839233398438,2.408192138671875,6.75919418334961,35.86024382386976
10065,4.682412872314454,4.481680297851563,5.478756866455078,30.187004986662433
10133,4.997208251953126,2.631677398681641,3.7124299621582035,30.4688519083771
10199,11.361074523925781,-1.9609222412109375,5.515580291748047,27.98650645445269
10265,11.150761871337892,-1.0192304992675782,6.412066040039063,31.222158782728265
10332,9.04733596801758,2.155667266845703,8.175249481201172,29.763499790032736
10398,4.273463287353516,3.5296600341796878,3.4789155578613284,25.987905067631154
10465,3.986210632324219,3.0385313415527344,0.6369255065917969,28.413594704548547
10532,7.085515594482422,-1.0581495666503906,6.048621826171876,35.609820555862356
10598,13.926589508056642,-2.4310945129394534,6.247857513427735,31.32579847659737
10665,5.609584808349609,1.0225236511230469,6.962172088623047,32.69979676645324
10732,4.40923095703125,4.048780517578125,1.2388238525390625,27.774268223893117
10798,7.329657897949219,1.2496014404296876,1.768721923828125,29.576072870600953
10865,13.453573150634766,-2.3655308532714847,9.805808715820312,34.69232742506612
10933,10.706485748291016,1.7655784606933596,11.16603012084961,28.813846567705728
10998,12.005035400390625,5.415288848876953,3.78652587890625,28.25426117767823
11065,5.229824523925782,3.643573150634766,3.792663116455078,23.69215857410143
11133,4.511767730712891,4.679718475341797,1.2713063049316407,40.23128946010495
11198,7.630831604003907,1.5479310607910157,4.868925018310547,44.01676195809461
11265,19.24233535766602,-4.395459594726563,16.41247009277344,40.5407655729051
11333,4.962929534912109,-1.234333190917969,9.70417007446289,42.77058835755107
11398,7.6597215270996095,2.960244140625,4.41402099609375,24.800069429571504
11465,9.713450775146486,3.467688903808594,-2.9030630493164065,30.809870469108873
11533,5.294939117431641,-1.1549981689453126,0.01107696533203125,31.248301494138595
11598,12.012220458984375,-1.905088348388672,11.311527557373047,24.885507165004444
11665,8.672515411376953,-0.23531066894531252,9.079369354248048,43.8051875807043
11733,4.582271118164063,1.7706678771972657,1.581910400390625,26.866362692622936
11798,4.710853729248047,2.441423034667969,2.4659719848632813,22.04119982655925
11865,4.381688232421875,2.1400996398925782,1.2379257202148437,28.785217955012065
11933,9.979148254394532,-0.2797682189941406,4.383783874511719,37.45543201998024
11998,16.036002960205078,-3.2949481201171875,13.426180114746094,40.96492890054361
12065,5.733377380371094,2.8984226989746094,6.580914916992188,38.02705327074352
12134,5.061574401855469,6.239325256347657,2.374512176513672,31.10252917353403
12198,5.629643096923829,3.152893524169922,3.7279975891113284,33.73095987078727
12265,12.181219024658203,-0.9457333374023438,14.486125946044922,42.245330626060856
12333,12.142150268554689,1.2665162658691407,10.886112213134766,28.90421018800914
12399,7.405849456787109,3.1931597900390627,0.8024812316894532,30.588054866759066
12465,4.148473205566407,2.199825439453125,1.5401472473144533,25.390760987927766
12533,3.2224987792968753,1.4421011352539064,-0.12169692993164063,34.571246263034084
12598,11.041189727783204,-0.6280938720703125,7.175628204345704,41.00542850012465
12665,13.387261047363282,-0.997375946044922,14.23255325317383,36.42563437104388
12733,4.170627136230469,3.462898864746094,7.057673492431641,27.737864449811937
12798,5.749244384765626,4.464017028808594,4.294120330810547,32.946866242794435
12865,7.043003997802734,2.9569509887695316,4.186045074462891,37.463227650899526
12933,12.172537078857422,-0.986598358154297,13.202694854736329,37.12481337801919
12998,7.3832464599609375,1.6199313354492189,11.27665008544922,33.37858429041094
13065,6.315067749023438,3.1796878051757815,5.885311431884766,20.5307844348342
13133,3.2489936828613284,1.8940113830566407,3.6573445129394533,31.556396337597764
13199,2.971021728515625,1.9300863647460937,4.065096588134766,33.062105081677615
13265,13.895154876708984,-1.5657440185546876,17.77673309326172,35.72639297042813
13331,11.654464416503906,-1.0237211608886718,10.65394500732422,39.44975908412048
13398,4.900359649658204,0.26420059204101565,4.244124298095703,37.36555847162636
13465,5.262157287597656,1.7127383422851563,1.9115249633789064,22.648178230095365
13533,6.989415435791016,0.7183561706542969,5.377567291259766,41.85740417574962
13598,8.878636779785158,-0.30895751953125,11.50896697998047,37.41230411025471
13665,8.710236968994142,-1.631906433105469,9.217232666015626,35.576274884268265
13732,4.371359710693359,-1.6693286132812502,3.3853601074218753,30.437551269686796
13798,3.2822245788574222,-2.447560272216797,2.069446563720703,31.439511164239633
13865,7.609875183105469,-0.3632945251464844,6.35204086303711,33.760291817281804
13932,18.25813201904297,0.3588038635253906,11.668684844970704,25.68201724066995
13998,10.374176788330079,-0.5966592407226563,10.607840881347657,25.55094448578319
14065,2.3872357177734376,-0.7511380004882813,3.196902008056641,33.60971883725936
14132,1.813179473876953,-0.5643264770507813,1.1198213195800781,26.03144372620182
14198,9.581575012207031,-1.5295193481445313,7.799381103515626,26.324572921847246
14265,15.175891571044923,-1.997296600341797,9.228758697509766,26.655809910179535
14334,16.210989074707033,-2.4195684814453124,10.016570434570314,33.14288660947498
14398,5.1539323425292976,2.126627655029297,5.491480407714844,32.34517283512687
14465,2.8327093505859375,6.138135681152344,1.4410533142089845,23.59835482339888
14532,4.909640350341797,7.296427001953125,7.486681365966797,35.078558716958305
14598,10.165660400390626,5.332361297607422,13.959071960449219,36.11723308007342
14665,16.194523315429688,0.4980143737792969,22.371428375244143,35.0745106090197
14732,5.356161804199219,-3.533402252197266,8.421637115478516,33.8327665040765
14798,0.4974156188964844,-3.9836659240722656,-0.13681549072265625,32.265999052073575
14865,2.8865972900390626,-3.7514987182617188,0.42646316528320316,32.833012287035494
14932,9.00287841796875,-1.0565029907226564,1.3019924926757813,30.224283711854866
14998,16.03450607299805,0.9461824035644532,11.867172088623047,28.64511081058392
15065,9.160650329589844,4.577032012939453,8.134683837890625,34.565178578052624
15133,3.3271311950683597,8.940458221435547,6.377937011718751,31.354506993455136
15198,2.344873809814453,13.33352279663086,9.286538543701173,25.74031267727719
15265,9.31378189086914,7.744744720458985,17.269737396240235,35.72523097849638
15333,9.819280700683594,2.1890478515625,15.253280639648438,31.18264726089479
15398,7.586224365234376,-0.7241940307617187,7.563321990966798,36.70338641127442
15465,2.2143452453613284,-5.006189575195313,-0.04071533203125,31.72310968521954
15534,4.217779083251953,-6.369404754638672,1.9205062866210938,32.08441356438567
15598,5.77963119506836,-4.164190521240235,-2.7475364685058596,42.137832993353044
15665,13.473930816650391,2.5259971618652344,9.207951965332033,30.941215958405614
15734,14.726076965332032,7.398065643310547,15.080090789794923,26.483600109809316
15798,7.401209106445313,8.659941558837891,7.843988342285157,34.838724542226736
15865,0.15358062744140627,10.128088531494141,3.304677886962891,28.46955325019824
15933,1.1382330322265626,7.803273010253907,10.966644744873047,43.630852430393354
15998,9.795031127929688,6.6436344909667975,23.625071411132815,40.59828381640983
16065,14.860347747802734,1.975741424560547,17.90411819458008,39.18764031027999
16131,5.770500183105469,-3.6051031494140626,6.667584686279297,40.40681439373358
16198,2.344574432373047,-4.865781555175782,-1.235680389404297,27.134905430939426
16265,6.001320190429688,-4.352798309326172,0.0143701171875,25.365584425715298
16332,6.598428497314454,-2.1501287841796874,-0.4935237121582032,36.78700434998304
16398,13.192815399169923,1.866917724609375,11.288774871826172,30.115704435972784
16465,12.029883728027345,7.397167510986328,13.825399932861329,42.20134249570252
16532,4.356390838623047,10.363399200439453,7.505392456054688,41.75192788386603
16598,-0.7153623962402345,10.642119598388673,7.0944969177246096,25.105450102066122
16665,1.7799485778808595,5.614823913574219,8.822054443359375,38.91704676239183
16733,9.294621734619142,6.578669586181641,14.409185943603516,41.392807327185245
16798,10.579998779296876,-0.9336085510253906,12.242591400146486,36.552345070342945
16865,1.6233741760253908,-4.374802551269531,0.63468017578125,26.55138434811382
16933,4.5619134521484375,-3.0588890075683595,-1.0424322509765624,20.827853703164504
16998,5.211412811279297,-1.987716522216797,-0.3224295043945313,28.241258339165487
17065,14.601086883544923,1.7202227783203126,11.21722366333008,25.19827993775719
17133,13.981375579833985,5.295238494873047,14.102024688720704,36.028193424327
17198,8.496780853271485,7.962392120361328,7.961194610595704,33.69586890736344
17265,0.33635055541992187,8.802744598388673,7.30286361694336,23.117538610557542
17333,0.0029937744140625003,8.675958251953125,4.246968383789063,33.9776625612645
17398,9.373058624267578,7.8640466308593755,18.32848571777344,41.8344068003795
17465,15.051799621582033,5.3685859680175785,17.617015228271484,42.970379093793596
17533,5.687123565673828,-0.33245864868164066,8.692274322509766,35.29173603261723
17598,3.6227664184570316,-4.647086334228516,0.0688568115234375,34.273237863572476
17665,5.795348510742188,-6.233936462402344,-1.4364129638671876,25.55094448578319
17733,4.529131622314454,-3.5679803466796876,-2.063459014892578,39.87308673731182
17798,6.22705078125,-0.3203338623046875,3.2955468750000003,29.237619608287005
17865,18.52353012084961,1.034798126220703,20.782632293701173,26.424645202421214
17933,14.118640136718751,6.945706329345703,11.471544799804688,38.91202827260295
17998,9.156758422851563,7.366780700683594,8.531808013916017,37.39414102698695
18065,-2.3463706970214844,11.402987365722657,4.799619140625,35.179872030250785
18132,3.5854939270019535,6.387367401123047,11.300450592041017,48.80024288109905
18198,10.538834381103516,4.034560089111328,19.046841888427736,43.09630167425898
18265,19.145037689208987,-2.7834617614746096,17.292190704345703,35.44811911757776
18333,7.026238861083985,-5.278024291992188,0.425115966796875,29.986951583116557
18398,1.431024169921875,-4.449796600341797,-1.2533436584472657,27.589118923979736
18465,2.7268794250488284,-5.648803253173829,-1.6480728149414063,39.655309436228606
18533,8.530760192871094,-1.654808807373047,5.99757797241211,37.984434603501875
18598,17.118402099609376,4.151916046142579,16.397351531982423,27.267272090265724
18665,9.08954818725586,8.67191665649414,11.773317260742187,40.20402720983878
18732,2.526446228027344,11.045979766845704,6.465355224609375,46.563952996828135
18798,-1.1211685180664064,9.187294921875,3.736829223632813,30.499928569201423
18865,3.4950819396972657,5.004093933105469,18.19406524658203,35.44564097496043
18933,14.95540008544922,5.378016357421875,20.64461929321289,37.99133693302063
18998,5.426365814208984,2.8961773681640626,7.7933935546875,29.58085848521085
19065,3.0957124328613284,-0.041912841796875,0.22558090209960938,34.276483711869325
19133,3.8643640136718753,-3.353775787353516,-0.045505371093750004,23.521825181113627
19198,3.5947746276855472,-3.5386413574218754,-0.8747808837890625,32.88249225571986
19265,4.0529718017578125,1.1464659118652345,4.734354858398437,42.138098446415015
19333,10.26355682373047,5.69056640625,20.165316009521487,21.78976947293169
19398,10.383008422851564,9.935588836669922,12.051588592529297,42.08011148892835
19465,4.6958848571777345,7.731871490478516,11.331436157226562,31.705550585212087
19533,3.8613702392578126,5.076992340087891,-0.7086264038085938,25.07855871695831
19598,-1.2379257202148437,1.2530442810058595,4.254752197265625,37.16587577675692
19665,4.730762329101562,2.7358607482910156,12.215497741699219,40.59714845546422
19733,12.184811553955079,0.8479866027832031,24.530987548828126,36.309361190641916
19799,9.075028381347657,-2.684966583251953,17.11630645751953,38.85417765110936
19865,6.312073974609375,-4.143084411621094,5.596861267089844,28.94869656745253
19933,3.988605651855469,-3.5257681274414066,-1.2660671997070314,37.26727209026572
19998,3.5621424865722657,-2.8030709838867187,-1.3015434265136718,34.571246263034084
20065,4.922363891601563,-0.9262738037109376,-0.7679031372070313,42.99267531608602
20133,13.883030090332031,3.5414854431152345,5.7559803771972655,44.74915236032773
20198,15.624358978271486,3.260370025634766,16.132701873779297,24.983105537896005
20265,9.032816162109375,5.103636932373047,3.2950978088378906,24.756711883244297
20333,2.215542755126953,5.532794494628907,2.6441015625,30.170333392987803
20398,0.6004014587402344,3.353775787353516,5.354964294433594,20.969100130080562
20465,6.738836517333985,2.1224363708496097,7.92990966796875,38.83150199683278
20533,21.19352783203125,-0.7526348876953125,12.724439392089844,34.364806950094945
20598,9.598489837646484,-2.6970913696289065,5.15213607788086,36.98187569866122
20665,3.8413119506835938,-0.7041357421875001,4.548740844726563,20.043213737826427
20733,2.2646406555175784,2.146685943603516,0.30671218872070316,14.913616938342727
20798,1.5899935913085939,1.382974090576172,-0.39353164672851565,26.9810054562339
20865,5.083279266357422,1.4148577880859377,1.7759069824218752,38.65814380167968
20932,13.102852478027344,3.2959959411621096,9.19298309326172,32.56958152560932
20998,14.503639526367188,2.823578338623047,15.320041809082031,23.30413773349191
21065,8.417146453857422,4.492607574462891,2.918331298828125,17.634279935629372
21133,2.70158203125,2.4804917907714845,4.121978302001954,33.76576957056512
21198,0.8749305725097657,3.107088775634766,-1.1217672729492187,26.9284691927723
21265,8.186775512695313,0.6927593994140625,5.503605194091797,42.53459164339838
21333,13.953084411621095,-0.10268646240234376,9.201964416503907,38.274338954007796
21398,9.50867660522461,1.7546511840820314,8.699908447265626,37.81036938621132
21465,3.9517822265625,3.4618510437011722,3.207829284667969,30.89905111439398
21533,3.5845957946777345,3.0479617309570313,0.13711486816406251,39.948887953649105
21598,10.34453842163086,2.233355712890625,4.264631652832032,38.70988813760575
21665,15.593373413085938,1.1356883239746094,10.670560455322267,40.68111617027303
21734,9.375154266357422,2.6238935852050784,5.711971893310547,46.954203806048355
21798,5.982309722900391,3.4253269958496095,0.42586441040039064,28.08885867359812
21865,3.1518457031250002,1.8351837158203126,0.15717315673828125,26.776069527204932
21933,4.22720947265625,1.8386265563964845,1.2615765380859376,38.48558572123763
21998,15.208224334716798,2.3641836547851565,9.784702606201172,34.39332693830263
22065,8.977281646728516,3.097359008789063,10.132579193115236,31.072099696478684
22133,2.937192077636719,3.7628750610351562,5.004692687988282,40.39255443806486
22198,4.31387924194336,3.386407928466797,-1.460662536621094,36.2096843564429
22265,8.383466491699219,0.7517367553710937,0.5703140258789062,45.599066250361126
22332,20.761825561523438,-3.788771209716797,12.338541870117188,40.67033639842262
22398,16.816180572509765,1.2481045532226562,11.347003784179687,47.3061272242206
22465,6.25384506225586,5.705684967041016,2.6490412902832032,39.56360553673322
22534,-0.38574783325195316,6.348598022460938,4.030518493652344,28.567288903828825
22598,2.7187962341308594,5.175337829589844,0.7177574157714844,39.12540882790638
22665,20.70120162963867,-0.8153544616699219,9.906549224853515,38.082785095827674
22734,10.299781494140625,-3.544479217529297,7.527396697998047,30.802656273398448
22798,5.413342895507813,-1.3036390686035157,4.2680744934082036,24.771212547196626
22865,3.2530352783203127,0.8054750061035156,1.2153227233886719,22.71841606536499
22933,-1.127904510498047,1.1036549377441407,-0.8607101440429688,22.7415784926368
22998,0.38035903930664067,1.0927276611328125,-1.0511141967773439,34.71731651480051
23065,13.877042541503908,2.6731411743164064,5.6996974182128906,31.386184338994923
23133,14.296021270751954,0.9880952453613282,9.801617431640626,21.43014800254095
23198,9.039851531982423,3.0455667114257814,3.8206549072265625,25.07855871695831
23265,4.817731475830079,2.119442596435547,-2.364782409667969,24.14973347970818
23333,9.725425872802735,-1.5030244445800782,2.552042999267578,36.097011023793996
23398,19.154168701171876,-1.588945770263672,10.545420684814454,35.03654519242959
23465,8.502019958496094,2.544408874511719,3.0024563598632814,38.265283063406514
23532,4.137994995117188,1.9342776489257814,0.8222401428222657,30.965624383741357
23598,5.001698913574219,0.18082397460937502,-0.552052001953125,27.31588765186739
23665,19.280955047607424,-1.2578343200683595,9.377399597167969,38.40921200198772
23732,11.791429595947266,-0.3737727355957031,9.196875,38.31677849191467
23798,5.0287925720214846,2.312091979980469,-1.5832575988769533,34.1946007278607
23865,1.488504638671875,2.3381378173828127,-1.4798226928710938,35.759956202032676
23932,6.355034637451173,3.3879048156738283,2.878514099121094,38.17697554763024
23998,18.44584167480469,2.559078369140625,8.643026733398438,39.40317221574218
24065,10.967393188476564,0.44801834106445315,5.504653015136719,40.503024039624016
24132,3.6995567321777347,5.098547515869141,-2.2876927185058595,31.392492175716068
24198,5.394182739257813,2.5764422607421875,-0.4507127380371094,45.92354437456401
24265,15.649806060791017,-4.48587158203125,3.380270690917969,46.68367277041854
24333,19.92850845336914,-2.65607666015625,2.7488836669921874,45.334797197259846
24398,14.7868505859375,1.7326469421386719,10.363548889160157,37.1717102683231
24465,4.4499462890625,5.15168701171875,-0.10493179321289063,26.62757831681574
24533,0.10912307739257814,5.173541564941407,2.0924986267089847,28.394780473741985
24598,2.1318667602539065,2.8500732421875004,2.7846592712402347,36.61812685537261
24665,23.591690826416016,-2.4674688720703126,8.25129135131836,39.690429673058134
24733,9.218130798339844,-4.083358612060547,2.904110870361328,35.02700175310563
24798,3.892505493164063,-0.29713211059570316,0.45759841918945315,26.78518379040114
24865,4.763993225097656,1.1647279357910156,1.7947677612304689,22.78753600952829
24931,2.635718994140625,1.3900094604492188,0.08801696777343751,32.52853030979893
24998,5.645959167480469,1.6259188842773438,-0.1776805114746094,33.84711742938282
25065,14.272819519042969,1.9755917358398438,2.920426940917969,36.15107987443194
25133,8.935967559814454,-0.5212161254882812,9.129515075683594,28.29303772831025
25198,8.862769775390625,1.1304492187500002,2.305505676269531,28.020892578817328
25265,7.526348876953126,1.5166461181640625,-0.5779481506347657,31.061908972634154
25333,15.063774719238282,2.255809020996094,2.4924668884277343,41.27072387119455
25398,17.560432891845704,-1.038091278076172,11.608509979248048,40.12752887491216
25465,3.8938526916503906,0.39278320312500004,6.276298370361329,37.95393334931289
25533,2.4575894165039065,1.5694862365722657,1.7988093566894532,30.453229787866576
25598,5.529800720214844,2.1357586669921877,2.736010437011719,35.150786750759224
25665,17.993931427001954,1.761536865234375,11.271111602783204,35.100085129402345
25733,12.083172912597657,0.8937913513183594,10.582393798828125,35.912872650584994
25798,5.11815673828125,1.2834310913085938,1.534010009765625,35.203525040833185
25865,2.036964111328125,1.6693286132812502,-1.828298034667969,30.370278797557752
25933,4.559069366455079,3.822002105712891,0.9951306152343751,32.415464805965485
25998,14.200669555664064,5.135670318603516,11.294463043212891,34.33609843323718
26065,8.164172515869142,3.1449600219726563,11.131302337646485,46.49179030048144
26133,3.956422576904297,2.1282742309570315,5.129832458496094,36.41077313325374
26198,12.16086135864258,0.34862503051757815,4.705165557861329,31.61068385471175
26265,12.52550308227539,-0.5126838684082031,2.894979858398438,33.16599302093861
26333,10.08587631225586,-0.8084687805175782,6.2031005859375,30.314084642516242
26398,10.37178176879883,0.6243516540527344,3.8086798095703127,27.528164311882716
26465,5.295238494873047,0.6881190490722656,0.6053411865234375,24.668676203541096
26534,4.088597717285157,0.12963043212890626,1.102756805419922,22.78753600952829
26598,6.199358367919922,-0.149688720703125,6.02631820678711,26.334684555795867
26665,17.61911087036133,-1.5919395446777345,16.23284362792969,33.57744325180376
26733,11.328741760253907,-2.216440887451172,8.939260711669922,37.49736315569061
26798,7.402107238769531,-1.1117381286621095,6.482120361328126,38.572118423168924
26865,7.364235992431641,-0.48154861450195313,8.07166488647461,21.46128035678238
26933,8.169710998535157,-0.9095086669921876,7.619006195068359,25.71708831808688
26998,6.395001525878906,-2.871778106689453,5.801785125732422,33.014640731433
27065,6.044131164550781,-4.5170068359375,2.489622802734375,27.61927838420529
27133,13.314063262939454,-3.832929382324219,4.958887939453125,25.010592622177516
27199,7.985593872070313,-2.3929238891601563,3.147804107666016,23.07496037913213
27265,15.78123275756836,-0.06421646118164062,8.161178741455078,23.521825181113627
27333,9.532776489257813,3.6371365356445313,4.565955047607422,28.692317197309762
27399,2.4704626464843753,6.954238586425782,5.541027374267578,21.238516409670858
27465,7.248227233886719,8.288563842773438,9.74817855834961,24.409090820652178
27533,8.417745208740234,4.506828002929688,13.026361541748047,34.77844476338758
27599,11.847862243652344,3.896098022460938,12.407398681640625,34.69527479187014
27665,12.264595642089844,-3.336860961914063,15.084581451416016,29.24795995797912
27732,2.2061123657226562,-7.2898406982421875,4.954846343994141,31.40193678578631
27798,4.101321258544922,-5.291795654296875,-0.1627116394042969,33.10905629376141
27865,6.371949462890625,-2.3963667297363282,-2.9100984191894534,24.638929889859075
27933,5.851631469726563,-0.5261558532714844,-3.9761814880371094,50.044976357690956
27998,20.68473587036133,-1.0891351318359375,15.526612243652345,43.318927241022166
28065,16.98458038330078,2.566113739013672,10.326126708984376,48.1423427361097
28133,5.437592468261719,5.133125610351563,6.272256774902344,39.56744545282691
28198,-3.284170532226563,9.391021270751954,9.740394744873047,25.809249756756195
28265,1.6290623474121095,7.9203295898437505,5.410648498535156,32.273724422896365
28333,12.817246398925782,5.1696496582031255,16.380885772705078,36.10979379922997
28398,20.551812286376954,-1.6992663574218752,17.675842895507813,41.66311680659592
28465,3.510499877929688,-4.072880401611329,4.542753295898438,43.94364112627129
28533,1.791324920654297,-4.314777374267578,1.7624349975585938,42.49638545540417
28598,4.002227325439454,-4.098776550292969,-2.3176304626464845,32.42044239369551
28665,5.382357330322266,-1.5567626953125,-4.216581573486328,34.96652939250918
28733,15.977774047851563,2.5135729980468753,9.918374633789062,25.575072019056577
28798,19.693946228027343,5.244344329833985,15.112124176025391,28.25426117767823
28865,6.531817016601563,6.953789520263673,3.3051269531250003,29.190780923760737
28934,0.7560777282714845,9.207053833007812,2.0469932556152344,32.44277120801843
28998,5.906417541503907,13.169014892578126,-1.227447509765625,42.16429830876251
29065,9.604627075195314,6.9217561340332034,17.67419631958008,51.24778017915204
29133,23.224803771972656,3.0529014587402346,17.23875183105469,53.71444703301872
29198,9.004225616455079,0.47481262207031255,7.221882019042969,38.996563803056354
29265,2.3104454040527345,-2.6806256103515627,2.150428161621094,24.50249108319361
29333,1.3588742065429689,-3.5413357543945314,-1.2557386779785158,37.27297202803587
29398,4.652624816894532,-5.292693786621094,-3.728746032714844,24.593924877592308
29465,8.203091583251954,-0.6230044555664063,0.43918670654296876,32.469906992415495
29533,18.07476333618164,4.743785247802735,15.53978485107422,25.599066250361126
29598,12.553943939208985,9.423803100585937,12.624896392822267,41.652740103112286
29665,3.2913555908203125,10.300380249023439,6.62986312866211,35.40454613671412
29733,-2.259551239013672,9.329948272705078,3.5250196838378907,27.075701760979364
29798,3.4723292541503907,4.380191345214844,11.821067962646485,31.209028176145274
29865,14.331497497558594,6.179150390625001,12.94463150024414,36.51278013998144
29933,9.634415130615235,0.07753875732421875,8.704399108886719,32.479732663618066
29998,3.7712576293945315,-3.3879048156738283,2.8075616455078127,27.40362689494244
30065,1.5961308288574219,-4.207001495361328,1.6726217651367188,29.872192299080048
30133,4.7611491394042975,0.22827529907226562,-6.311475219726563,21.818435879447726
30198,10.759924621582032,1.9574794006347658,-0.8422984313964844,31.26780577012009
30265,21.939127349853518,2.8937823486328127,15.30267791748047,29.698816437465002
30333,10.474019165039063,6.317313079833984,7.851323089599609,42.807149194910075
30398,4.540507965087891,9.246871032714845,4.632117462158203,35.1067903103221
30465,-4.4547363281250005,10.254874877929687,3.702849884033203,27.774268223893117
30533,-0.8446934509277344,5.176984405517579,4.705464935302735,41.36276535660292
30598,6.091732177734375,5.7242463684082034,11.290870513916015,41.16474911908331
30665,28.26078140258789,4.1992176818847655,31.187644958496094,39.72665592266111
30733,14.970219268798829,-2.4637266540527345,8.612639923095703,42.44004828091454
30798,4.540058898925781,-1.2539424133300783,2.711162109375,32.11654400553182
30865,-1.3522879028320314,-1.5810122680664063,-3.2662078857421877,34.5132580848952
30933,3.9910006713867188,-3.254232788085938,1.991309051513672,28.182258936139554
30998,10.93655731201172,-2.5894651794433594,-2.8898904418945315,24.409090820652178
31065,7.095095672607422,-3.7854780578613285,1.9814295959472656,30.84576277934331
31131,15.21166717529297,0.8511300659179688,13.444741516113282,26.21176281775035
31198,14.373110961914064,6.319857788085938,16.825760650634766,24.329692908744057
31265,8.324339447021485,8.053103485107423,9.974657592773438,37.84046415808113
31331,-2.6827212524414064,10.503358154296876,9.909093933105469,33.41236623238692
31398,3.3673974609375,11.735895080566406,8.556806030273439,32.53580289562183
31465,9.647887115478516,4.499193878173829,15.270195465087891,40.54842779228683
31532,18.32085159301758,-1.4662010192871096,20.885169067382815,42.37694508664057
31598,10.744356994628907,-6.00910400390625,8.314160614013673,43.06189050400426
31665,-0.05882766723632813,-5.800288238525391,1.6714242553710938,36.341748717626004
31732,2.3598426818847655,-4.712051239013672,0.1818717956542969,42.42963591821483
31798,6.457122344970704,-3.1124775695800784,-3.150648193359375,42.701429145656455
31865,10.255623321533204,0.4285588073730469,2.2843995666503907,31.67317334748176
31933,19.961739349365235,0.2832110595703125,21.94182174682617,29.47433721887051
31998,10.949280853271485,6.89810531616211,9.171577606201172,51.352503562733915
32065,0.9154962158203126,8.603957977294922,6.5863037109375,40.234993815480124
32132,0.7890092468261719,8.939560089111328,1.1481124877929687,37.10878617685173
32198,0.7521858215332031,3.902534637451172,9.91972183227539,33.79305517750582
32265,11.496692504882812,8.093070373535157,19.230509948730468,29.15927211697116
32333,10.566227416992188,-1.5732284545898438,12.456496582031251,27.015679850559273
32398,-0.49052993774414066,-3.1593301391601565,1.12326416015625,22.624510897304294
32465,3.5651362609863284,-2.6541307067871096,0.4132905578613281,23.09630167425899
32533,5.091512145996094,-1.0321037292480468,1.2922627258300783,24.969296480732147
32598,6.40667724609375,0.4831951904296875,0.5072950744628907,37.42332282357148
32665,7.482639770507813,-1.3233979797363282,2.242636413574219,20.969100130080562
32731,20.08792694091797,-0.15911911010742188,21.889131317138673,33.583156400821956
32798,16.31726806640625,2.934497680664063,11.862232360839844,47.415218917737874
32865,13.151201934814454,2.635569305419922,5.69775146484375,47.45199750432554
32933,1.1256591796875,1.9338285827636719,1.7137861633300782,41.029822305182634
32998,-3.549269256591797,1.5989749145507812,-4.181554412841797,21.931245983544617
33065,0.32183074951171875,1.957778778076172,-1.8226098632812502,42.49516315801663
33133,13.824801177978516,1.6365467834472658,8.79017074584961,44.56882020623248
33198,21.300555267333987,-0.09445358276367188,16.120726776123046,31.228709228644355
33265,5.319637756347657,-3.037483520507813,7.486980743408203,40.75802353626826
33333,4.216282196044922,-4.572391662597656,4.699926452636719,28.325089127062363
33398,3.878584442138672,-3.293900299072266,1.7250128173828125,23.560258571931225
33465,5.348827056884766,-1.896705780029297,0.520767059326172,20.086001717619176
33532,9.983040161132813,-1.5510745239257813,5.1272877502441405,17.558748556724915
33598,12.76784912109375,-1.7890795898437502,6.219266967773438,40.02036402259529
33665,12.047097930908203,-2.0899539184570313,6.9799850463867195,25.55094448578319
33733,8.023914184570312,-0.7756869506835938,5.0247509765625,25.06505032404872
33798,5.805078277587891,0.847687225341797,3.6720140075683596,29.876662649262748
33865,3.096610565185547,0.940045166015625,2.842738494873047,28.73320601815399
33933,4.504432983398438,-0.6768923950195312,0.07140151977539062,26.73020907128896
33998,8.077053680419922,-7.5251513671875,1.2386741638183594,28.014037100173553
34065,11.283535766601563,-3.9700442504882814,9.870773620605469,36.784273224338676
34133,5.288951568603516,2.775378570556641,0.032482452392578125,27.442929831226763
34198,8.608897705078125,2.1609063720703126,3.839815063476563,41.4491652709285
34265,14.876065063476563,-2.890638885498047,13.128299560546875,42.715395855938034
34333,10.854827270507814,-0.5150788879394531,6.461613006591797,32.15108581053093
34398,6.3159658813476565,0.8491841125488282,1.8684146118164064,38.625487695247934
34465,5.668711853027344,1.072819061279297,-0.8473878479003907,26.94605198933569
34533,8.417296142578126,-2.481090545654297,-1.5694862365722657,35.886078047426864
34598,16.321010284423828,-5.764362945556641,8.458759918212891,44.874918915584914
34665,7.683821411132813,-2.1116587829589846,8.031248931884766,31.136091510730278
34733,2.858006744384766,0.871637420654297,2.457140350341797,29.138138523837167
34799,2.8101063537597657,0.7893086242675782,-1.6645385742187502,25.352941200427708
34865,20.67814956665039,-2.371817779541016,6.225853271484375,41.353553094087744
34933,16.6837060546875,-2.89557861328125,9.669741668701173,36.92406234833631
34998,11.956685943603516,1.8089881896972657,2.435884552001953,39.51483230752294
35065,5.28865219116211,3.108286285400391,1.447789306640625,22.55272505103306
35133,2.307451629638672,3.7053945922851566,0.18142272949218752,39.70300375402178
35198,5.39597900390625,1.116228790283203,3.343297576904297,47.10498158193558
35265,20.73652816772461,-2.9228219604492187,12.706626434326173,44.81657572570985
35333,12.88610321044922,-2.535876617431641,8.757837982177735,45.92875952629111
35398,5.8511824035644535,-1.1575428771972658,2.9692254638671876,32.37292337567459
35465,6.58435775756836,0.47840515136718753,-6.31851058959961,25.646660642520892
35533,5.053191833496094,-1.3573773193359375,-0.7575746154785157,28.325089127062363
35598,10.299631805419923,-2.50279541015625,4.614005126953125,27.831886910752573
35665,17.724940795898437,-0.9337582397460938,8.632398834228516,25.910646070264992
35732,5.128634948730469,0.8625064086914063,1.675166473388672,21.931245983544617
35798,3.803291015625,1.0734178161621095,2.4218138122558597,16.812412373755873
35865,2.888094177246094,0.3131488037109375,0.9792636108398438,22.69512944217916
35932,4.703818359375,-0.7737409973144531,2.87162841796875,34.616485680634554
35998,12.005634155273437,-3.6356396484375,4.643793182373047,30.182843084265308
36065,16.351397094726565,-5.131628723144532,13.153596954345703,34.87138375477186
36133,6.644981689453125,0.9967771911621094,6.72566390991211,26.61812685537261
36198,4.086651763916016,3.340603179931641,-0.26734405517578125,31.202447955463654
36265,7.277715911865235,1.392554168701172,2.655028839111328,32.942457161381185
36333,15.493231658935548,-2.6800268554687503,8.265062713623047,35.839917991983164
36398,15.135774993896485,-1.4793736267089845,9.362730102539063,32.955670999624786
36465,7.459587707519532,0.6129753112792969,0.6078858947753907,36.13313161455459
36533,5.240602111816407,0.7586224365234375,-2.415526885986328,24.471580313422194
36598,5.70733154296875,-1.635648651123047,-1.3015434265136718,33.944516808262165
36665,10.706485748291016,-3.011737060546875,0.5004093933105469,28.90979596989689
36733,11.721824340820312,-0.969833221435547,8.027506713867188,30.549958615291416
36798,4.218976593017579,1.0475216674804688,1.4446458435058593,32.21935599828005
36865,7.663463745117188,0.37901184082031253,0.40430923461914064,30.354297381845484
36933,13.048066406250001,-2.958747253417969,4.210743713378906,39.61516011448949
36998,18.582657165527344,-0.6709048461914063,15.27977554321289,35.02563669107363
37065,10.563233642578126,4.358785858154297,0.9077124023437501,38.5582190540603
37133,9.631421356201173,4.608017578125001,2.3778053283691407,30.860037056183817
37198,4.076472930908204,4.012256469726562,0.33185989379882813,42.78753600952829
37265,6.209088134765626,3.864064636230469,2.249222717285156,38.01129187579704
37333,20.380418701171877,-2.233206024169922,9.039402465820313,41.17768294926372
37398,10.987601165771485,-1.8049465942382814,5.846092987060548,38.24256037629682
37465,5.189707946777344,0.016914825439453125,3.007545776367188,31.826999033360423
37533,6.845863952636719,0.1431024169921875,-2.055974578857422,24.082399653118497
37598,5.137616271972656,-1.242865447998047,-1.5106585693359376,30.02166061756508
37665,11.374696197509767,-2.4402255249023437,4.877157897949219,33.3645973384853
37731,15.178436279296875,-0.3034190368652344,10.566227416992188,36.2148786458063
37798,6.753056945800782,1.2335847473144532,-0.2796185302734375,28.42609239610562
37865,4.392765197753906,1.34360595703125,2.157762908935547,25.352941200427708
37933,2.9556037902832033,1.244062957763672,3.2659085083007815,23.891660843645326
37998,3.318000183105469,2.0793260192871097,0.1484912109375,32.821687783046414
38065,12.06805435180664,0.13786331176757813,1.3659095764160156,25.634810853944106
38133,20.982466735839846,-3.057092742919922,12.614867248535157,35.947239464097464
38198,6.6928820800781255,2.0697459411621093,7.437583465576172,38.39666556882433
38265,4.535268859863281,4.390968933105469,0.4423301696777344,34.08070285887185
38333,6.412664794921875,3.613485717773438,0.5471122741699219,34.13969971748061
38398,16.84611831665039,2.834505615234375,9.754764862060547,34.79719235439571
38465,10.582842864990235,1.1773017883300783,9.531129913330078,31.486026548060934
38533,8.112080841064454,1.6420852661132814,0.31284942626953127,26.40481436970422
38598,3.377127227783203,0.9180409240722657,-0.7539820861816406,22.55272505103306
38665,3.1295420837402346,0.2225871276855469,-0.9701325988769531,35.28788191774896
38733,11.238180084228516,1.8401234436035157,4.923711090087891,35.82517883604063
38798,14.062207489013673,1.3037887573242188,11.233240356445313,34.7158505418519
38865,7.60942611694336,3.7027001953125,3.1666648864746096,31.88084373714938
38933,5.7336767578125,4.1002734375,1.6935781860351564,20.170333392987803
38998,5.881718902587891,2.9895831298828126,0.852626953125,37.99478398837981
39065,14.433136138916016,1.4114149475097657,5.497767333984375,33.52182518111362
39133,12.567715301513672,2.029928741455078,11.111842803955078,38.8320703335239
39198,8.91755584716797,3.9987844848632816,5.075645141601563,36.36688447953283
39265,8.205187225341797,4.661606140136719,2.118245086669922,31.15943176939055
39333,2.472258911132813,2.8038194274902346,4.454287261962891,28.959747323590644
39398,3.6657270812988285,3.1328352355957034,5.785618743896484,31.2515582958053
39465,13.169314270019532,1.7295034790039063,12.183164978027344,37.641013764762285
39533,13.360766143798829,2.3321502685546878,10.517279205322266,38.637985386805
39598,5.6643708801269534,1.474134521484375,4.815785522460938,28.42609239610562
39665,3.9100190734863283,0.45954437255859376,2.3129901123046874,28.40106094456758
39733,5.45824951171875,1.8558407592773438,2.4360342407226563,28.796692056320534
39798,10.510393524169922,2.828368377685547,9.580826568603516,21.760912590556813
39865,11.034902801513672,1.191522216796875,10.039921875000001,31.97004728023046
39933,5.415737915039063,-0.045056304931640624,3.8347256469726565,22.355284469075485
39998,4.147425384521485,0.21704864501953125,2.9958700561523437,27.810369386211317
40065,7.129075012207031,2.9669801330566408,9.146130523681641,19.637878273455552
40133,8.568930816650392,6.631060638427734,8.239465942382813,20.606978403536118
40198,16.503780212402344,1.8588345336914063,6.693929901123047,33.736474722092176
40265,5.407505035400391,-3.274740142822266,3.716920623779297,21.613680022349747
40333,6.0008711242675785,-1.8702108764648437,0.34862503051757815,33.066394410242616
40398,10.311008148193359,-1.9387683105468752,6.492748260498047,26.665179805548807
40465,14.764846343994142,1.1497590637207031,7.427853698730469,25.50228353055094
40533,9.891280975341797,2.531236267089844,6.892417144775391,31.96728722623287
40598,5.780529327392578,4.495601348876954,7.915389862060548,27.40362689494244
40665,2.804418182373047,7.143145751953125,2.536026306152344,31.914510144648954
40733,3.1906150817871097,5.2048265075683595,1.0364447021484375,27.032913781186615
40798,10.671458587646486,4.4786865234375,8.291108551025392,35.64429326997983
40865,31.677725830078128,0.901575164794922,21.181852111816408,37.664872062396945
40933,7.207362213134766,-4.604125671386719,8.289761352539063,36.62946614332625
40998,0.9777667236328126,-4.143982543945313,2.5500970458984376,36.483600109809316
41065,4.090543670654297,-3.6877313232421876,-0.09205856323242188,38.71164132802949
41132,7.442822570800781,-0.5867797851562501,-5.772146759033204,23.61727836017593
41198,7.881260833740234,-1.7028588867187502,1.3455519104003908,28.09559714635268
41265,17.05777816772461,-0.3936813354492188,15.273338928222657,23.521825181113627
41333,18.331629180908205,5.1662068176269536,5.741610260009766,27.193312869837264
41398,4.74019271850586,7.70283187866211,3.5645375061035156,36.648299411430905
41465,-2.780767364501953,8.127199401855469,4.763095092773438,31.058506743851435
41533,2.631827087402344,7.079378356933594,12.5738525390625,32.88472800599783
41598,13.2827783203125,7.963739318847657,18.249450073242187,44.24097239400547
41665,21.843176879882815,0.4731660461425781,17.58767623901367,32.4551266781415
41733,4.196373596191407,-4.75456283569336,6.526877288818359,37.09778601848225
41798,-3.673361206054688,-4.599485321044922,-2.9597950744628907,24.899584794248348
41865,3.351680145263672,-6.112089843750001,-0.4314028930664063,24.04833716619938
41933,6.620133361816406,-4.29711410522461,-4.552483062744141,28.382192219076256
41998,13.732143859863282,-1.5167958068847658,3.740721130371094,27.134905430939426
42065,28.120074005126956,4.398153991699219,26.782754974365236,41.656597202094936
42133,9.187594299316407,8.857081604003907,3.2298335266113285,41.1882666293329
42198,-2.176024932861328,9.864636383056641,3.476969604492188,36.49237472349607
42265,7.480993194580079,13.227543182373047,17.873132629394533,36.341748717626004
42331,12.923226013183594,3.3280293273925783,21.5503857421875,41.86362940394731
42399,12.163855133056641,3.0765522766113285,16.016992492675783,39.836713828601965
42465,5.269192657470703,1.6375946044921876,6.923253021240234,42.65030197723058
42533,1.1811936950683595,-4.084256744384766,1.118324432373047,40.05566571133294
42598,4.280049591064453,-5.974226531982422,-0.7770341491699219,36.336704060514435
42665,7.1597611999511726,-4.7045668029785155,-2.321821746826172,47.160033436347994
42733,13.203293609619141,2.518363037109375,7.652237091064453,32.688119037397804
42798,19.409088592529297,8.962761840820313,18.488203582763674,31.892094895823064
42865,8.945697326660156,12.968432006835938,10.06956024169922,44.18102332249959
42933,1.2798385620117188,12.244537353515625,11.275452575683595,34.61948495203762
42998,0.41583526611328125,9.333540802001954,1.159189453125,33.67355921026019
43065,8.558003540039063,4.934039611816407,20.780237274169924,36.998377258672456
43135,8.619375915527344,1.3445040893554687,8.490194549560547,42.280151751017875
43198,0.4785548400878907,-4.965623931884766,2.7273284912109377,32.20631019448092
43265,2.4926165771484374,-5.220244445800781,1.0024653625488282,29.052560487484513
43336,8.16941162109375,-3.0816416931152344,0.4279600524902344,17.16003343634799
43398,11.410621490478515,-0.13666580200195313,8.126001892089844,36.640775901850745
43465,14.643299102783203,6.312822418212891,19.064505157470705,32.979792441593624
43536,7.5028477478027344,10.062824249267578,8.73074432373047,40.14016229258364
43598,-0.6524931335449219,9.87032455444336,1.9847227478027345,33.56217134219735
43665,-3.0996043395996096,8.659941558837891,4.409530334472657,29.670797341444974
43736,4.659510498046875,8.353678436279298,18.130447540283203,38.863779067585725
43798,14.120137023925782,5.404660949707032,24.771387634277346,38.9209460269048
43865,6.9147207641601565,0.4495152282714844,9.430988159179687,36.1689542640076
43936,0.6746470642089845,-0.6731501770019531,-2.2995181274414063,36.602012013806814
43998,1.0539582824707032,-3.663930816650391,-0.5044509887695313,35.609820555862356
44065,8.517886962890625,-5.663622436523438,-1.07296875,27.60422483423212
44136,6.995552673339844,-4.095782775878907,3.4081127929687502,35.83878598498626
44198,8.659791870117187,1.5883470153808594,12.501552886962891,30.86359830674748
44265,11.829300842285157,6.318959655761719,23.430476074218753,27.283537820212285
44336,4.573738861083984,8.912466430664063,8.790769500732422,35.2750101098112
44398,-2.734962615966797,6.868017883300782,6.635401611328125,42.786164336678326
44465,-2.3209236145019534,4.176015930175781,8.787626037597656,31.961761850399736
44537,7.172933807373047,2.293231201171875,17.492474212646485,31.708482036433093
44598,10.598111114501954,3.7088374328613285,22.52545806884766,31.03461622094705
44665,6.959178314208985,-1.0759625244140625,13.440250854492188,33.58696099573811
44733,0.9539662170410157,-4.58930648803711,1.3964460754394532,40.87106744099093
44798,5.8457936096191405,-6.1734622192382815,-2.243983612060547,26.972293427597176
44865,8.137976989746095,-3.0611343383789062,-1.668131103515625,44.46537167073644
44934,8.188272399902344,1.2027488708496095,9.47320037841797,32.304489213782745
44998,13.221705322265626,8.122559051513672,22.580094451904298,25.263392773898442
45065,4.014651489257813,12.116104431152344,7.829318847656251,47.600528742856845
45136,-2.4435186767578125,8.141719207763673,4.0830592346191406,29.395192526186186
45198,-1.4603631591796875,7.037166137695313,7.1843101501464846,29.822712330395685
45265,5.680387573242188,7.3480696105957035,18.762433319091798,38.20726762823834
45332,8.192763061523438,4.458927612304688,14.979050903320314,40.55072382449418
45398,0.24025039672851564,2.0070263671875,1.3021421813964844,32.20108088040055
45465,-2.9225225830078125,-1.6509169006347657,-2.572400665283203,21.2057393120585
45532,2.9740155029296877,-5.076094207763672,4.035158843994141,13.617278360175929
45598,7.584278411865235,-1.3232482910156251,-0.22109024047851564,24.578818967339924
45665,8.329129486083986,-0.13427078247070312,8.554411010742188,22.355284469075485
45735,17.346228332519534,-3.2686029052734376,18.466648406982422,27.60422483423212
45798,12.388238525390626,6.000721435546875,20.08568161010742,19.49390006644913
45865,7.153025207519532,10.39049285888672,10.501861267089843,31.051694279993317
45933,-3.7389248657226566,6.697971496582031,3.602857818603516,21.903316981702915
45998,-4.457580413818359,1.9634669494628907,3.9844143676757815,26.702458530741243
46065,6.814129943847656,-1.4078224182128907,10.767858123779298,43.723043018128884
46135,14.25605438232422,-4.045038299560547,21.641995239257813,31.906117978136052
46198,5.474715270996094,-3.059487762451172,9.679770812988282,29.67547976218862
46265,1.9904109191894532,-2.8828550720214845,6.939120025634766,24.885507165004444
46336,4.533173217773438,-2.302511901855469,3.5953733825683596,27.97959643737196
46398,6.060596923828125,-1.9404148864746096,3.8378691101074223,28.337843746564786
46465,8.593629455566406,-1.5473323059082031,6.832841033935547,32.81033367247728
46533,6.949747924804688,-0.26240432739257813,4.31343017578125,26.11723308007342
46598,6.534960479736329,0.9611512756347657,6.88852523803711,27.76701183988411
46665,8.969946899414063,1.7375866699218752,6.843319244384766,35.418287667813125
46733,13.51075424194336,2.209555206298828,10.727591857910157,27.951845896824242
46798,7.238796844482422,2.9259654235839845,4.652774505615235,35.277587525209725
46865,4.279750213623047,3.1557376098632814,3.687132568359375,22.600713879850748
46932,2.370919647216797,1.3093272399902345,6.553970947265626,21.5836249209525
46998,6.676566009521485,-0.15971786499023438,13.190719757080078,21.271047983648078
47065,9.756710815429688,-0.6971003723144532,8.460705871582032,24.899584794248348
47133,5.978717193603516,-0.3249742126464844,4.261338500976563,17.24275869600789
47198,4.469256134033204,-1.0683283996582031,4.022584991455078,15.440680443502757
47265,6.56519760131836,-0.8662486267089844,4.612957305908203,18.750612633917
47334,5.030738525390626,0.8737330627441406,3.4347573852539064,13.010299956639813
47398,3.1497500610351565,1.41066650390625,2.9023146057128906,25.19827993775719
47465,6.970854034423828,0.6060896301269532,2.101629638671875,36.99664320202373
47535,17.28395782470703,-0.3339555358886719,12.26294906616211,23.673559210260187
47598,14.100078735351563,1.192570037841797,11.377390594482423,30.15778756389041
47665,6.64857421875,2.6203010559082034,1.1978091430664064,36.97578033651113
47736,3.895499267578125,2.2888902282714847,-1.0704240417480468,26.839471307515122
47798,4.105512542724609,1.6527131652832032,-1.8989511108398438,29.111576087399765
47865,11.857142944335939,-0.08696914672851563,4.285288696289062,34.02089350572097
47933,18.844013671875,-0.8062234497070313,15.036681060791016,39.89004615698536
47998,3.2217503356933594,1.2437635803222657,4.103865966796875,45.90128194720598
48065,1.8479072570800783,1.5708334350585937,-2.049537963867188,27.41939077729199
48136,8.392148437500001,1.3916560363769532,1.3486953735351563,35.87710965018911
48198,18.234481201171874,0.6453080749511719,8.585246887207031,29.355072658247128
48265,11.494447174072267,2.222727813720703,10.259964294433594,30.02166061756508
48336,6.726262664794922,3.890409851074219,-0.6815327453613281,26.55138434811382
48398,3.968697052001953,2.0546273803710937,0.0059875488281250005,26.693168805661124
48465,4.363276519775391,1.0876382446289063,2.7107130432128907,33.21391278311689
48536,10.712473297119141,4.262236633300781,7.256759490966798,31.760912590556813
48598,13.723611602783205,3.3030313110351566,13.86566619873047,36.53983907374069
48665,4.436623992919922,2.8901898193359377,4.390220489501953,28.709888137605756
48736,6.03110824584961,1.2660671997070314,-2.5001010131835937,32.93362554711445
48798,11.06154739379883,-3.7179684448242187,0.14579681396484376,35.62530768862261
48865,17.83421356201172,-1.8628761291503908,5.838458862304687,36.17210094557434
48936,13.264815673828126,1.9562818908691406,14.06250686645508,36.66049738480516
48998,6.876250762939454,5.112767944335938,5.051994323730469,33.694014136966246
49065,3.9836659240722656,4.503385162353516,3.561244354248047,27.14329759745233
49136,5.60000473022461,3.137325897216797,4.364773406982422,32.730012720637376
49198,12.94313461303711,-1.5849041748046875,6.236032104492188,27.024305364455255
49265,9.23280029296875,-2.2194346618652343,8.00655029296875,24.62397997898956
49336,4.154460754394531,-0.8123606872558594,3.180136871337891,23.180633349627616
49398,6.3813798522949226,-1.2641212463378906,0.255069580078125,18.633228601204557
49465,10.481653289794922,-1.3012440490722657,3.570375366210938,23.483048630481605
49536,5.04196517944336,1.0785072326660157,1.943258972167969,24.517864355242903
49598,1.986519012451172,2.9008177185058597,1.2039463806152344,30.856472882968564
49665,7.238048400878907,2.861748962402344,6.845115509033204,32.335037603411344
49735,11.794872436523438,3.646417236328125,7.232809295654297,29.717395908877783
49798,7.053033142089844,1.997296600341797,13.611644439697267,30.15778756389041
49865,4.729564819335938,1.8601817321777345,5.604046325683594,28.87617300335736
49936,7.805218963623047,2.1947360229492188,-1.610500946044922,34.51018452155458
49998,10.333311767578126,-0.8198451232910157,0.7072792053222656,30.74450718954591
50065,14.531331939697266,-3.1817834472656252,4.496349792480469,32.501759480839254
50136,7.224277038574219,1.229543151855469,8.482560424804689,32.7415784926368
50198,2.7761270141601564,4.2960662841796875,2.3595433044433594,30.453229787866576
50265,6.970404968261719,1.9941531372070314,4.040248260498047,35.991185650553625
50337,18.921851806640625,-1.5468832397460939,15.451318817138672,47.49836763529527
50398,10.168654174804688,1.0806028747558594,12.11924789428711,53.55144896174566
50465,5.666466522216798,3.3185989379882814,-0.781973876953125,35.06369717095504
50535,4.703069915771485,1.9887643432617188,-0.5363346862792969,39.53566414257007
50598,6.136788482666016,-0.04071533203125,1.5364050292968752,47.09541310239206
50665,8.461005249023438,-1.2133767700195313,0.39248382568359375,34.04320467221731
50735,12.973521423339845,0.5168751525878906,7.833659820556641,35.65257343420213
50798,4.745731201171875,2.2944287109375003,2.109862518310547,25.877109650189112
50865,6.5610063171386726,0.730331268310547,-0.12723541259765625,44.48257884196469
50936,16.115936737060547,-10.362950134277344,5.984405364990235,36.83947130751512
50998,19.899019775390627,-11.36810989379883,7.762407989501954,47.0543604658525
51065,14.517410888671876,-1.376986541748047,11.826456756591798,36.81512586638962
51135,8.57656494140625,4.07392822265625,3.4615516662597656,30.09450895798694
51198,-0.32871643066406253,5.162314910888672,6.329737243652344,34.61948495203762
51265,1.3864169311523438,3.7449124145507815,2.103725280761719,36.18780024506215
51336,18.71363479614258,-6.112239532470704,11.371103668212891,33.90405156480081
51398,9.307794342041015,-5.888604583740235,7.240293731689453,33.974185423513475
51465,5.082979888916016,-2.215542755126953,-1.0135423278808595,36.74769314015426
51537,7.645351409912109,-1.4075230407714845,1.4073733520507814,27.275412570285567
51598,2.9192294311523437,0.8984317016601563,0.30611343383789064,22.90034611362518
51665,3.9936950683593753,1.9022442626953127,-1.542392578125,32.00576926754848
51736,6.931785278320313,-1.0527607727050783,4.525090026855469,40.57399817266062
51798,14.656920776367189,-0.4712200927734375,9.035211181640625,34.00365273349939
51865,8.3873583984375,2.0353175354003907,13.68753662109375,31.80125875164054
51937,6.338419189453125,3.7928128051757812,0.8931925964355469,27.16837723299524
51998,6.506669311523438,2.8671377563476566,-0.9360035705566406,29.698816437465002
52065,13.681100006103517,-2.149380340576172,4.949307861328125,35.898379431474595
52137,12.847633209228515,-3.077450408935547,12.970228271484375,39.16559219301114
52198,3.8670584106445314,2.9154872131347656,7.369624786376954,46.431268334183294
52265,5.22638168334961,5.22638168334961,2.828368377685547,25.78639209968072
52336,6.581214294433594,1.063388671875,2.8538154602050785,38.737273806466796
52398,18.80659149169922,-2.0026853942871097,14.872622222900391,36.302244107524324
52465,13.188773803710939,0.8321195983886719,9.750274200439454,46.65412118002188
52534,3.4617013549804687,2.0640577697753906,-2.4173231506347657,30.090257420869104
52598,3.053500213623047,2.783910827636719,-1.4618600463867188,32.07095540419218
52665,2.103874969482422,3.087928619384766,-0.3852987670898438,43.679519677579776
52736,14.677577819824219,2.353106689453125,17.485289154052737,56.74011001809071
52798,12.456346893310547,1.7215699768066408,13.902190246582032,37.722483399718534
52865,1.687291259765625,1.6557069396972657,6.62267807006836,34.407517004791856
52936,3.4790652465820315,3.5271153259277344,2.401007080078125,32.43286146083446
52998,6.0288629150390625,2.9689260864257814,5.0605265808105475,37.297315952870356
53065,15.20927215576172,-0.6780899047851563,15.75728256225586,37.642508754387734
53136,13.628858642578125,-1.3633648681640627,8.231083374023438,46.26514871465041
53198,7.127727813720703,-1.0036628723144532,6.8567912292480475,39.83220214648103
53265,3.988905029296875,-0.23456222534179688,2.049837341308594,26.424645202421214
53337,3.2946487426757813,-0.36673736572265625,0.8744815063476563,30.496056125949732
53398,6.673721923828126,0.6291416931152344,1.99984130859375,34.09087369447835
53465,18.613642730712893,0.14594650268554688,13.352832641601562,25.831987739686227
53536,8.53390365600586,-0.3890409851074219,12.479548645019532,34.046627008737225
53598,3.6217185974121096,-1.4548246765136719,8.756790161132812,25.831987739686227
53665,3.5717225646972657,-3.116968231201172,9.912686462402345,25.2244423350632
53736,9.190737762451173,-5.719905395507813,11.474089508056641,20.043213737826427
53798,6.957831115722657,-6.370003509521485,6.80904052734375,27.92391689498254
53865,7.5769436645507815,-3.665427703857422,1.2266990661621093,34.37433443797971
53936,10.81875228881836,-2.787503356933594,2.6182054138183597,34.514794051248614
53998,15.844850463867187,-1.7339941406250001,7.3164852905273445,33.57744325180376
54065,13.560151519775392,1.1967613220214843,8.088130645751953,29.143431571194405
54133,6.216871948242188,6.194718017578126,6.078110504150391,27.543483357110187
54198,-2.6358686828613282,6.490353240966797,6.018983459472657,26.0959440922522
54265,-3.7776942443847656,4.587210845947266,6.641089782714844,32.84881714655453
54334,3.8242474365234376,7.239844665527344,14.115047607421875,33.95675785269936
54398,10.97921859741211,2.1372555541992186,32.74021636962891,38.33529581758644
54465,7.394473114013672,-11.671977996826172,14.94776596069336,47.58245564168938
54537,2.4144790649414065,-9.163943481445314,-2.224823455810547,48.59666577720273
54598,5.929768981933594,-6.4235920715332036,-4.121229858398438,43.282572497312366
54665,11.977342987060547,-2.3285577392578127,-2.818339233398438,49.97285882094448
54734,10.250533905029297,0.8876541137695313,9.008865966796876,24.638929889859075
54798,11.616742858886719,5.753884735107422,18.39315124511719,26.532125137753436
54865,0.23381378173828127,9.48083450317383,10.93895233154297,32.079035303860515
54936,-6.352639617919922,9.9010107421875,4.133504333496094,33.71067862271736
54998,2.345622253417969,6.9904632568359375,15.437996520996094,38.03183888535342
55065,14.85196517944336,2.897674255371094,22.20662109375,36.572471298837165
55134,9.770482177734376,-2.736010437011719,10.645562438964845,39.63835030702148
55198,1.3906082153320314,-4.461023254394531,0.4528083801269531,28.561244442423003
55265,-0.7619155883789063,-5.2524275207519535,-0.03338058471679688,31.528995963937476
55337,9.07996810913086,-4.195774841308594,-2.9424311828613283,27.48962861256161
55398,11.921060028076173,-2.7041267395019535,2.6039849853515626,29.390197764486665
55465,18.272502136230468,2.5370741271972657,17.984351348876952,25.010592622177516
55536,10.189760284423828,9.370214538574219,6.556066589355469,36.59631011607
55598,-1.5411950683593751,12.42865447998047,-0.3933819580078125,33.07067950661298
55665,-3.622467041015625,10.068512420654297,6.14322509765625,30.0774777800074
55737,-0.3183879089355469,5.343737640380859,18.0678776550293,46.81711468401807
55798,15.102693786621094,5.356760559082032,20.15064651489258,45.420906115551816
55865,21.539159088134767,-0.6249504089355469,20.540735321044924,41.70349739139184
55936,5.342091064453125,-3.509452056884766,3.81526611328125,42.572224461875734
55998,-2.4002586364746095,-3.921694793701172,-3.7170703125,32.506639194632434
56065,7.732320556640626,-7.758067016601563,0.4331991577148438,30.398105541483503
56136,7.135062561035157,-2.7635531616210938,-2.472707977294922,39.731278535996985
56198,10.03558090209961,0.5210664367675781,8.887318725585938,42.275010649714304
56265,17.7421549987793,4.45518539428711,25.737029571533203,32.94025094095323
56336,6.8127827453613286,8.788673858642579,9.731563110351564,39.65577957910528
56398,-1.6854949951171876,10.61083465576172,5.767506408691407,32.24791956492681
56465,-2.364932098388672,7.649243316650391,3.4838552856445313,35.96377143997599
56535,4.502786407470703,2.5378225708007816,16.77711181640625,36.451273992583914
56598,19.192489013671874,3.952830047607422,25.495581665039065,35.211380837040366
56665,7.245682525634766,-3.4441877746582032,6.4726899719238284,32.304489213782745
56736,-3.7607794189453125,-6.165079650878907,-5.926475830078125,28.518696007297663
56798,2.4372317504882814,-5.774990844726563,-1.4876065063476562,34.18135498425232
56865,10.76082275390625,-1.9249969482421876,2.391277313232422,32.56236533205923
56936,8.720415802001954,-1.015338592529297,8.724307708740234,23.838153659804313
56998,16.47713562011719,1.5495776367187502,26.888135833740236,32.081725266671214
57065,5.28865219116211,9.17531982421875,7.12518310546875,49.480411131542674
57136,-0.6851252746582032,9.59729232788086,7.140601043701173,28.597385661971472
57198,0.016016693115234376,10.463990020751954,5.167554016113281,30.301947853567516
57265,2.308649139404297,6.4077250671386725,17.611626434326173,43.85230795112214
57336,22.242696075439454,4.318070526123047,28.1892301940918,39.500239065233266
57398,10.828931121826173,-5.131179656982422,11.740086364746094,41.597476105242734
57465,0.5198689270019532,-4.737049255371094,-1.44898681640625,34.82158695411276
57536,-0.8017327880859375,-4.788691864013672,-2.1368064880371094,28.388490907372553
57598,5.341641998291016,-5.2260823059082036,-3.4718801879882815,35.98899887063883
57665,5.990542602539063,-3.0648765563964844,-1.8865269470214845,30.437551269686796
57736,15.055691528320313,-0.6834786987304687,15.25283157348633,30.802656273398448
57798,18.28507598876953,5.948480072021485,22.318438568115237,45.436459532332464
57865,6.787185974121094,11.414812774658204,1.4760804748535157,45.353067815049044
57936,-4.117787017822266,10.257269897460938,7.655829620361328,29.49877704036875
57998,0.08936416625976563,9.288634185791016,5.01561996459961,26.201360549737576
58065,8.208180999755859,4.040547637939453,20.10948211669922,37.83689236347316
58135,17.10612762451172,1.5681390380859377,24.18341033935547,46.43926194049256
58198,4.650529174804688,-5.558241577148438,12.577445068359376,38.11172695066554
58265,0.4616400146484375,-6.484665069580078,3.9471418762207033,35.90284403718162
58336,6.24860595703125,-4.6836103820800785,-3.2787817382812503,28.58537197569639
58398,5.184019775390626,-4.147874450683594,-4.434079284667969,47.36818638473778
58465,11.553274841308594,-0.4153861999511719,6.377487945556641,44.99604613811262
58536,15.008389892578126,0.9924362182617188,22.780976715087892,29.057958803678687
58598,9.273815002441406,7.678731994628906,9.24567352294922,52.37294852293716
58665,2.983745269775391,8.390352172851562,5.654940490722656,41.174038844163434
58736,-6.001469879150391,7.645052032470703,2.415227508544922,27.535830588929066
58798,2.117047576904297,5.5112393188476565,10.563233642578126,33.9776625612645
58865,18.563946075439453,4.422104187011719,29.76230895996094,42.88941933852878
58936,12.136162719726563,-2.146835632324219,16.53566390991211,35.16403148447403
58998,2.7566674804687503,-4.818030853271485,1.9477496337890625,29.479236198317263
59065,-1.5878979492187502,-3.308569793701172,-2.5041426086425784,35.483894181329184
59136,5.739664306640625,-2.2361997985839843,-0.9068142700195313,46.51278013998144
59198,4.64199691772461,-0.32183074951171875,-2.33514404296875,41.58211669214101
59265,11.567046203613282,1.9714004516601564,4.3189686584472655,31.936810295412815
59333,21.81039505004883,3.0656250000000003,28.36750946044922,35.3567380342575
59398,12.212054901123048,6.994205474853516,9.321416015625001,42.565012662113176
59465,3.928879852294922,6.052364044189454,4.8738647460937505,40.756929182018034
59536,-3.997137908935547,2.918181610107422,3.410058746337891,30.74816440645175
59598,-2.743345184326172,2.145787811279297,0.01676513671875,39.906939606797515
59665,1.6458274841308596,1.9492465209960939,10.263706512451172,48.595285664435764
59733,11.71733367919922,2.3070025634765625,22.719005584716797,34.295908022233014
59798,9.362430725097656,-1.5856526184082032,16.0993212890625,37.15919817433579
59865,0.86939208984375,-2.8337571716308596,5.532644805908204,30.081741840064264
59936,2.4466621398925783,-3.8672080993652345,3.610042877197266,32.24274014294258
59998,5.42756332397461,-2.9687763977050783,4.6324168395996095,27.85329835010767
60065,8.039631500244141,0.15582595825195314,5.869145050048829,26.93726948923647
60134,6.994205474853516,0.8803193664550781,6.935527496337891,34.63892988985907
60198,8.414901123046876,1.2602293395996094,9.796378326416017,25.899496013257078
60265,15.131883087158204,2.351759490966797,10.82638641357422,38.607571230815424
60336,6.334227905273438,2.268831939697266,4.2026605224609375,26.82145076373832
60398,1.964963836669922,2.3451731872558597,1.603615264892578,16.989700043360187
60465,1.520538024902344,1.0925779724121094,-0.31030471801757814,23.891660843645326
60536,8.658294982910157,-0.10328521728515626,6.788533172607422,31.781132523146315
60598,16.81692901611328,-2.622396697998047,8.78298568725586,27.708520116421443
60665,7.287894744873047,-1.7413288879394533,9.466913452148438,30.65206128054312
60736,2.6105712890625,1.4546749877929688,2.7858567810058594,22.624510897304294
60798,5.207520904541016,3.2563284301757816,-1.246457977294922,26.522463410033232
60865,10.01402572631836,0.5854325866699219,5.68143539428711,37.74881765818797
60936,7.449109497070313,0.8867559814453125,8.660540313720704,40.22593314021462
60998,11.989318084716798,2.3355931091308597,13.958922271728516,20.374264979406238
61065,7.330705718994141,3.1422656250000003,2.212848358154297,30.916669575956846
61136,5.788163452148438,0.9774673461914063,0.2785707092285156,23.636119798921445
61198,7.477849731445313,-0.8637039184570313,1.1404783630371094,24.653828514484182
61265,9.739646301269532,0.13965957641601562,4.032165069580079,36.499187187354195
61336,10.922935638427735,2.604434051513672,13.11318099975586,36.0400993241223
61398,3.7043467712402345,4.338278503417969,2.601140899658203,27.97959643737196
61465,5.445525970458984,3.160827026367188,-0.7294331359863282,33.97592434038116
61536,8.609496459960939,0.5713618469238282,5.918392639160157,28.175653695597806
61598,15.622263336181641,1.7497114562988283,7.2054162597656255,32.688119037397804
61665,10.512788543701172,3.9375617980957034,7.831115112304688,29.2272545799326
61734,7.2739736938476565,4.717589721679688,1.1924203491210938,25.888317255942074
61798,4.1833506774902345,2.997217254638672,-0.8470884704589844,25.82063362911709
61865,6.308331756591797,3.027005310058594,4.07392822265625,39.10410939914688
61935,11.183094635009766,3.6405793762207033,5.843099212646485,33.27563260187278
61998,10.916648712158203,2.7831623840332034,6.871011657714844,40.96423330595271
62065,2.167342987060547,2.2239253234863283,1.334175567626953,31.832698436828046
62132,7.115004272460938,0.8214916992187501,-1.881287841796875,46.297764535369524
62198,25.24155990600586,-4.067042541503906,7.4501573181152345,40.8289303328818
62265,20.103494567871095,-2.522853698730469,20.66602478027344,43.213912783116896
62333,7.201524353027344,6.3741947937011725,-1.1030561828613281,41.96342020139768
62398,1.033450927734375,6.465205535888672,6.35204086303711,26.893088591236204
62465,-0.5637277221679687,5.636828155517579,2.45489501953125,30.930713063760635
62534,14.222224731445314,0.17184265136718752,10.086924133300782,38.41171694499532
62598,17.75847106933594,-3.956272888183594,8.913963317871094,33.60025089189398
62665,4.021836547851563,-1.7248631286621094,2.8744725036621097,27.33999286538387
62734,4.4978466796875,1.3427078247070314,3.458258514404297,16.812412373755873
62798,5.9850041198730475,1.8790425109863282,5.400469665527344,28.280150642239768
62865,3.9408549499511722,1.7992584228515627,-0.35521133422851564,27.39572344450092
62935,7.322472839355469,1.6432827758789064,0.0568817138671875,36.103407114521566
62998,6.4815216064453125,2.8168423461914065,8.71113510131836,34.07220892927397
63065,10.701246643066407,2.7223887634277344,18.99819305419922,29.532763366673045
63136,5.635181579589844,2.788551177978516,-1.0614427185058595,35.88047496986083
63198,5.866300964355469,2.6708958435058596,-3.0156289672851564,33.77306251068199
63265,7.536976776123047,1.1722123718261719,-3.4181419372558595,26.483600109809316
63336,20.627704467773437,-0.8421487426757813,12.381801910400391,37.86680453196649
63398,7.059918823242188,0.9503736877441407,10.1979931640625,31.436392352745433
63465,-0.9114546203613282,2.4948619079589847,5.295238494873047,34.20615770625765
63536,4.784949645996094,3.540886688232422,-1.0072554016113282,31.37670537236755
63598,6.915918273925781,2.001936950683594,4.761448516845704,28.597385661971472
63665,21.954395599365235,-0.09131011962890626,13.070220336914064,28.639173769578605
63736,9.290580139160157,0.5737568664550782,12.305909729003908,49.300469211127044
63798,5.636079711914062,2.5116270446777347,-1.99984130859375,36.11723308007342
63865,3.9877075195312504,2.0514839172363284,-0.3215313720703125,29.947569445876283
63936,4.260590057373047,2.460732879638672,1.4180012512207032,39.65859936807072
63998,6.797664184570313,4.846022644042969,4.903652801513672,33.07709923404807
64065,18.5516716003418,0.6806346130371094,18.427429962158204,34.89114369378919
64135,3.4814602661132814,0.8723858642578125,6.5080165100097656,40.13553430541676
64198,4.49066162109375,1.3483959960937502,0.16031661987304688,35.77836341292744
64265,10.187514953613281,-2.0841160583496094,-0.3591032409667969,40.162810245428304
64333,15.012132110595704,-2.946921844482422,6.407874755859376,32.821687783046414
64398,15.274686126708986,-1.1567944335937501,18.633102264404297,41.3994202306998
64465,4.641697540283204,4.19846923828125,2.575843505859375,33.33245698961963
64536,0.24953109741210938,4.962630157470703,1.743274841308594,27.363965022766426
64598,1.2425660705566406,4.8313531494140625,1.9389179992675782,41.23067243736567
64665,20.044517211914062,-2.5532405090332033,15.092964019775392,39.74097003794131
64736,13.806539154052736,-4.728367309570313,10.906469879150391,46.29379013907319
64798,3.7344342041015626,-2.1400996398925782,0.718505859375,38.16440167956139
64865,5.660478973388672,-0.089813232421875,-3.765719146728516,27.730546933642625
64936,4.308789825439454,-1.6363970947265625,0.9180409240722657,28.382192219076256
64998,7.1132080078125,-0.8241860961914063,4.910688171386719,27.535830588929066
65065,13.250295867919922,-0.6161187744140625,15.365846557617187,23.99673721481038
65135,6.8726582336425786,1.53999755859375,6.1718156433105476,25.76341350205793
65198,5.560037841796875,1.9311341857910158,3.4757720947265627,26.503075231319364
65265,3.600762176513672,1.2602293395996094,-0.017064514160156252,29.196010237841108
65336,6.876400451660157,0.025896148681640627,-2.5731491088867187,37.20820581770344
65398,18.52248229980469,-3.617527313232422,7.29762451171875,43.26028468337008
65465,11.768826599121095,-2.3067031860351563,11.647279357910158,48.26599528162504
65536,0.9978250122070313,3.0322444152832033,1.5766712951660158,38.208579894397005
65598,5.069358215332032,2.6315277099609378,1.0234217834472656,41.91199419701518
65665,16.19751708984375,-1.145867156982422,13.180391235351562,35.986810989071635
65736,10.46713348388672,-1.0798544311523437,13.515244903564454,43.356785023565656
65798,5.282514953613282,-0.09580078125000001,0.35715728759765625,34.310419453358854
65865,4.705464935302735,0.5110372924804688,-2.2481748962402346,32.617385473525374
65936,8.03379364013672,0.5011578369140626,-1.5084132385253908,42.00467449950159
65998,14.119687957763672,-2.7464886474609376,3.134032745361328,36.638892986226615
66065,8.695717163085938,-0.6224057006835938,8.881331176757813,35.590683340345365
66136,5.406606903076172,2.7774742126464846,4.223018188476563,28.241258339165487
66198,8.306526489257813,3.2876133728027344,2.520758056640625,36.021685513789976
66265,11.555669860839844,-1.4003379821777344,4.108057250976563,33.06853748693009
66336,12.168495483398438,-2.0948936462402346,6.059998168945313,37.34239604435455
66398,11.690389709472656,0.45804748535156253,12.14843719482422,33.37459261290656
66465,8.519234161376954,4.702022094726563,-0.6315367126464844,26.35483746814912
66537,3.912114715576172,3.858077087402344,7.288942565917969,31.705550585212087
66598,1.798509979248047,2.878214721679688,8.13633041381836,35.61101383649056
66665,9.760303344726562,-1.2466076660156251,14.35380111694336,44.24865309463941
66736,13.656551055908205,-0.6457571411132813,12.363988952636719,36.11404637711593
66798,8.235574035644532,0.04176315307617188,4.9388296508789065,28.709888137605756
66865,5.4513638305664065,-0.17378860473632812,2.9895831298828126,28.603380065709935
66936,5.939648437500001,0.5599855041503906,4.039350128173829,33.22012438582401
66998,5.462590484619141,2.1571641540527344,8.562045135498048,28.836614351536177
67065,10.553503875732423,-1.2986993408203125,14.982344055175782,23.010299956639813
67136,6.639892272949219,-2.2600003051757813,5.200186157226563,21.84691430817599
67198,5.171595611572266,-2.798280944824219,3.8446051025390626,27.458551951737288
67265,5.2980825805664065,0.49367340087890627,4.486620025634766,29.06335041805091
67336,14.745835876464845,1.2449610900878907,8.99329833984375,26.63700925389648
67398,12.998070373535157,-2.406695251464844,5.397326202392579,28.808135922807914
67465,6.278843078613281,-2.352657623291016,2.6429040527343752,29.647309210536292
67531,7.026089172363282,-1.0750643920898437,-0.3330574035644531,31.550322287909704
67598,12.261302490234376,-2.2107527160644533,2.7870542907714846,25.95496221825574
67665,19.471359100341797,-2.964136047363281,11.740685119628907,22.430380486862944
67731,10.06237518310547,2.249821472167969,4.166585540771485,35.02153892871361
67798,4.796475677490235,8.245154113769532,2.5822801208496093,32.01670179646582
67865,5.225483551025391,10.452463989257813,0.987945556640625,27.85329835010767
67932,5.187761993408204,7.249724121093751,3.2991394042968754,34.761067168401915
67998,20.822000427246095,7.28849349975586,18.378781127929688,42.171152955076835
68065,32.00359817504883,1.2799882507324218,27.753486328125,39.36111431674854
68132,5.695655822753906,-8.082592163085938,4.537065124511719,40.668102756258335
68198,-6.2825852966308595,-5.558990020751954,-1.13763427734375,36.08526033577194
68265,9.036109313964845,-8.160130920410158,-1.0780581665039064,25.976951859255124
68333,3.7122802734375,-4.860991516113281,-5.251529388427735,36.744018128452815
68398,6.202052764892579,-1.9585272216796876,7.454049224853516,31.67317334748176
68465,25.39139831542969,8.091423797607423,22.537283477783205,33.330440298234876
68533,4.9282017517089844,11.392658843994141,10.38046371459961,45.0931007420929
68598,-5.7173606872558596,12.719050598144532,9.613758087158203,42.32182634187274
68665,-2.919379119873047,7.251670074462891,11.662697296142579,40.10130277215148
68732,11.497291259765625,-0.1335223388671875,25.581353302001954,34.37592032253961
68798,12.178075561523437,-3.114573211669922,19.42271026611328,41.51369850247461
68865,1.7166302490234375,-5.068460083007813,-2.270328826904297,35.55578072772955
68933,-0.7943980407714845,-9.05407196044922,-2.172582092285156,30.476641946015597
68998,7.9062588500976565,-8.158933410644531,-3.782484283447266,34.87138375477186
69065,16.345858612060546,-2.704875183105469,10.987900543212891,37.33197265106569
69133,17.534237365722657,4.355043640136719,21.10715744018555,29.31457870689005
69198,11.378139038085939,10.890004119873048,9.225914611816407,48.158897438843844
69265,2.1884490966796877,14.328653411865234,7.960446166992188,42.72282644290865
69333,-1.413959655761719,13.521531829833986,2.1189935302734377,42.77723788762454
69398,7.648045806884766,4.437372436523438,22.770498504638674,35.62768543016519
69465,22.311852264404298,2.6640101623535157,21.358484802246096,43.86873349684179
69533,8.031997375488281,-4.396956481933594,5.163961486816406,39.786825651569444
69598,-0.7229965209960938,-5.8248371887207036,0.8936416625976563,37.962273140294386
69665,4.370611267089844,-6.6630940246582036,0.9187893676757813,34.102709642521845
69733,8.465046844482423,-4.608766021728516,-2.062261505126953,35.289167002776544
69798,11.155252532958984,1.2323872375488283,8.573571166992188,22.764618041732444
69865,16.131654052734376,4.66115707397461,18.761235809326173,28.88179493918325
69933,5.275629272460938,10.914403381347658,5.526806945800781,38.13447544264821
69998,1.230890350341797,12.769645385742189,7.720195770263672,32.113875529368585
70065,-2.0839663696289064,8.65754653930664,6.893165588378906,31.80412632838324
70132,17.21300537109375,4.298161926269532,24.696992340087892,41.60468531119037
70198,18.888920288085938,-1.3501922607421877,16.197816467285158,42.97322714205302
70265,3.680097198486328,-6.982679443359375,5.860762481689453,33.18689269947746
70333,-1.205892333984375,-6.423741760253907,-6.353537750244141,35.424519473759766
70398,5.062921600341797,-4.173770599365235,-3.9806721496582034,35.518158223510156
70465,15.727943572998047,-1.169667663574219,7.6615177917480475,40.61414778277073
70533,15.50101547241211,2.618654479980469,17.04819808959961,27.589118923979736
70598,10.001451873779297,6.413263549804688,11.24311981201172,39.80911937776844
70665,-1.5368540954589844,12.376113739013672,5.868097229003906,33.85427514805131
70733,-3.8715490722656254,10.816506958007814,2.3796015930175782,37.4350976472843
70798,6.621330871582032,9.530082092285157,15.238162078857423,45.19906710716738
70865,16.22041946411133,3.665278015136719,27.873836059570316,37.37351695803714
70933,12.83101776123047,-3.2645613098144532,16.283288726806642,43.59778584139239
70998,4.130360870361328,-4.238735504150391,3.216211853027344,36.456187382426954
71065,-1.6122972106933595,-4.340823211669922,-1.8651214599609376,35.538830266438744
71133,7.875572662353516,-6.1119401550292976,-2.1559666442871093,27.888751157754168
71198,7.361840972900391,-4.1721240234375,-1.6326548767089843,34.641913706409994
71265,11.369457092285156,-0.23501129150390626,6.865024108886719,28.686444383948256
71331,16.695681152343752,6.664890289306641,19.238892517089845,29.268567089496923
71398,7.0169581604003906,12.110416259765625,6.277944946289063,32.32996110392153
71465,0.28096572875976566,11.277398529052736,9.560319213867189,31.63757523981956
71533,-0.23605911254882814,10.957064666748048,4.846172332763672,37.074850119674736
71598,0.7840695190429688,4.831053771972656,10.523117065429688,38.84115362011669
71665,17.477505340576172,4.246519317626953,26.12861526489258,45.46887987671178
71731,11.396700439453125,-5.737718353271485,12.430301055908204,30.12415374762433
71798,-3.3555720520019534,-9.296118621826173,-0.2363584899902344,34.38067450453494
71865,5.782175903320312,-5.581293640136719,-2.800675964355469,37.580788222496125
71932,8.486452331542969,-4.451592864990235,-1.2865745544433593,41.833552702605125
71998,11.70161636352539,-2.860850830078125,6.258485412597657,31.835545336188616
72065,18.718275146484377,2.2625450134277343,17.039665832519532,35.61101383649056
72133,11.51525390625,6.061495056152344,5.6467076110839844,29.703468762300936
72198,0.18396743774414062,9.671687622070314,4.0127055358886725,48.63804481366742
72265,-4.615801391601563,8.919801177978517,5.181325378417969,34.30558769522757
72333,4.007167053222656,6.278543701171875,6.673721923828126,32.47727832909723
72398,19.206410064697266,4.749922485351563,24.93260238647461,34.31846045698725
72465,16.96197738647461,-0.18456619262695315,12.846585388183595,36.602012013806814
72533,3.5482214355468753,-5.168302459716797,6.350693664550781,25.82063362911709
72598,-0.20866607666015627,-4.721182250976563,0.2704875183105469,28.779469516291883
72665,5.5904246520996095,-3.127745819091797,-0.45744873046875,34.44669230938524
72733,7.347470855712891,-0.43798919677734377,-4.024530944824219,47.02818126370317
72798,9.541308746337892,1.9944525146484375,1.9320323181152346,34.78133428100517
72865,14.243031463623048,1.738634490966797,20.514090728759765,30.659529803138696
72933,13.217514038085938,7.259004821777344,11.112740936279298,48.65287607421912
72998,7.031328277587891,7.863747253417969,7.387886810302735,40.661021967667736
73065,-1.6545094299316407,5.388943634033203,5.428910522460938,30.409976924234904
73133,-1.2983999633789063,4.496649169921875,1.076411590576172,31.936810295412815
73198,0.3243754577636719,2.717149658203125,9.162296905517579,39.458623244896174
73265,13.670472106933595,2.271376647949219,22.875879364013674,41.20113071407684
73333,7.9748162841796875,-1.3915063476562501,11.809092864990236,32.79210512601395
73398,1.9859202575683594,-0.9181906127929688,5.174739074707031,30.809870469108873
73465,3.1668145751953127,0.8858578491210938,6.712640991210938,29.15927211697116
73533,5.260510711669922,3.112178192138672,7.287295989990235,29.845273133437928
73598,6.201004943847656,2.714904327392578,7.796387329101563,31.6345955176999
73665,5.071603546142579,2.391277313232422,7.191644897460938,34.26673888021373
73733,4.895719299316407,2.9138406372070316,5.770799560546875,32.853322276438846
73798,3.2421080017089845,3.830384674072266,5.901627502441406,31.354506993455136
73865,4.916675720214844,5.600304107666016,7.610174560546875,30.060379549973174
73933,3.0529014587402346,4.924010467529297,6.537205810546875,19.86771734266245
73998,2.676284637451172,4.18844009399414,7.844587097167969,20.934216851622352
74065,3.582799530029297,4.158502349853515,8.027806091308594,14.471580313422193
74133,2.63212646484375,3.2051348876953125,8.603508911132813,11.760912590556813
74198,2.451152801513672,2.767145690917969,7.716453552246094,19.242792860618817
74265,1.469344482421875,2.8744725036621097,8.611741790771484,23.783979009481374
74333,4.26118881225586,2.6722430419921874,10.77564193725586,23.560258571931225
74398,4.836442565917969,1.4066249084472657,6.948550415039063,19.777236052888476
74465,2.745889892578125,0.9331594848632813,5.536985778808594,20.453229787866576
74533,4.566404113769532,2.641856231689453,2.9789552307128906,29.938769149412114
74598,4.087100830078125,3.36979248046875,1.9306851196289063,31.595671932336202
74665,3.919449462890625,4.0285725402832036,7.039561157226563,43.301295624875245
74733,11.802506561279298,4.59125244140625,16.85704559326172,26.503075231319364
74798,9.503138122558594,3.607797546386719,13.428425445556641,22.355284469075485
74865,6.820716247558594,4.004772033691406,1.0843450927734375,25.670263661590603
74933,1.99265625,1.015338592529297,1.4932946777343752,24.440447959180762
74998,4.712500305175782,-0.9225315856933595,0.27991790771484376,36.48164778574001
75065,14.391971740722656,-0.09774673461914063,7.725734252929688,30.519239160461066
75133,13.586796112060547,2.587968292236328,9.679621124267578,37.488080049586024
75198,3.5320550537109376,4.363126831054688,2.847827911376953,34.6686762035411
75265,6.226002960205078,3.67635498046875,-1.4552737426757814,32.545480771089736
75333,12.532987518310547,0.6996450805664063,3.429817657470703,40.4641711698399
75398,15.49712356567383,-0.47975234985351567,2.7867549133300784,37.8915749191144
75465,10.193502502441406,1.1300001525878907,11.406280517578125,42.54064452914338
75533,4.696034545898438,3.073857879638672,-2.022444305419922,28.034571156484137
75598,4.471651153564453,2.898722076416016,-1.3696517944335938,32.7669152884504
75665,7.714657287597657,4.352648620605469,-0.31853759765625,40.65803712575022
75733,19.64245330810547,2.0651055908203126,12.216395874023439,45.13244243083922
75798,4.879852294921875,1.402283935546875,5.885461120605469,41.361178428964756
75865,2.6277854919433596,2.226170654296875,2.7626550292968752,40.7700432679335
75933,8.851842498779297,0.6150709533691406,-2.399210815429688,45.24396122103842
75998,21.504730682373047,-5.2642529296875,5.920637969970703,39.81501488148247
76065,17.300423583984376,-1.6688795471191407,12.804672546386719,35.40954808926133
76133,8.987310791015625,4.304748229980469,1.5920892333984376,29.074113607745858
76198,6.320007476806641,4.0230340576171875,5.191204833984375,19.49390006644913
76265,2.5131239318847656,4.099075927734376,2.041754150390625,30.766404436703418
76332,8.516390075683594,3.190914459228516,4.366869049072266,36.74034000431255
76398,21.27870071411133,-2.0046313476562503,7.347770233154297,30.10723865391773
76465,7.738008728027344,-3.309767303466797,7.0187544250488285,30.737183503461228
76533,4.70905746459961,-2.2736219787597656,0.12484039306640625,22.4551266781415
76598,9.257049865722657,-0.8318202209472657,1.2916639709472657,13.222192947339193
76665,4.177662506103516,0.5740562438964844,0.9249266052246095,25.403294747908735
76733,0.6656657409667969,1.6063096618652344,-1.2228071594238281,29.88112840268352
76798,4.104614410400391,2.2411395263671876,1.670376434326172,35.477747053878225
76865,6.717880096435548,4.399201812744141,6.653064880371094,33.89874558390985
76931,10.73537567138672,2.1775218200683595,12.19304443359375,31.861083798132054
76998,6.192173309326172,2.2541624450683595,3.822002105712891,33.308194664958364
77065,7.433392181396485,1.3895603942871095,-2.292632446289063,34.89536629482095
77133,15.182328186035157,-1.5587086486816406,1.1285032653808593,34.73486970064569
77198,17.155674591064454,-3.450923767089844,14.011163635253906,30.849335749367164
77265,4.398004302978515,0.70174072265625,6.537505187988281,37.803893284709524
77331,2.222428436279297,2.4043002319335938,-0.33724868774414063,39.61990287440065
77398,6.365512847900391,2.511926422119141,2.1676423645019534,38.58176137982345
77465,22.363345184326175,-0.7011419677734375,10.386900329589844,34.12796428716543
77531,10.850186920166017,0.8767268371582032,11.835587768554689,48.34280791269804
77598,5.433850250244141,2.904110870361328,-1.1927197265625,39.871745010875415
77665,4.408033447265625,2.8165429687500003,-1.548230438232422,30.692980121155294
77732,4.638554077148438,3.1260992431640626,0.7958949279785157,37.416242575038126
77798,10.172396392822266,3.707340545654297,3.0684690856933594,39.089137400209715
77865,17.45774642944336,2.405647430419922,10.333910522460938,41.745540345208305
77933,4.906496887207031,1.4534774780273438,0.3740721130371094,31.571544399062816
77998,5.017416229248047,0.9505233764648438,-2.381697235107422,30.425755124401906
78065,7.0115693664550784,-4.3254052734375,-4.895569610595703,43.63781152580866
78133,25.196952667236328,-5.506299591064454,10.48389862060547,49.01501912130055
78198,16.83803512573242,-0.020207977294921877,8.007598114013673,37.21233370017278
78265,7.0680020141601565,2.065554656982422,0.21899459838867188,30.350292822023683
78333,6.0553578186035155,2.1366567993164063,2.3079006958007815,22.833012287035498
78398,5.795797576904297,2.198478240966797,5.125192108154297,30.170333392987803
78465,6.666985931396485,-4.214485931396484,0.6614744567871094,36.07990858547175
78533,14.911092224121095,-7.233258361816406,4.6607080078125005,22.25309281725863
78598,9.011111297607423,-3.333567810058594,3.131038970947266,24.377505628203878
78665,8.87160140991211,-1.1240126037597657,-1.2299922180175782,27.895807121644257
78733,9.426198120117188,-1.5233821105957033,-1.6675323486328126,21.986570869544227
78798,7.201674041748047,-1.3885125732421875,0.2820135498046875,24.28134794028789
78865,2.861150207519531,0.08068222045898438,-0.5269042968750001,26.414741105040992
78933,5.8486376953125,-0.4132905578613281,4.847818908691407,36.032526619816466
78998,10.46428939819336,-1.7744100952148438,6.545139312744141,30.870712059065355
79065,16.25963790893555,0.2183958435058594,11.73125473022461,44.79056783934414
79133,10.702893218994141,2.249222717285156,-1.1437715148925782,40.14016229258364
79198,7.187004547119141,0.6445596313476563,2.0769309997558594,41.81128699747295
79265,4.2186772155761725,-2.4830364990234375,-2.6024880981445313,37.5350645699097
79333,9.139244842529298,-6.542145538330079,-3.134481811523438,36.45815118296642
79398,14.934743041992188,-6.0165884399414065,5.156177673339844,36.32356046239073
79465,5.30062728881836,-2.50758544921875,6.944508819580078,28.518696007297663
79533,4.870571594238282,1.6503181457519531,2.285746765136719,30.15778756389041
79598,11.734398193359375,2.391127624511719,2.5077351379394535,37.20242018287057
79665,20.042122192382813,-5.2894006347656255,8.68478988647461,38.822398480188234
79732,15.196698303222657,-4.604874114990235,10.23915756225586,31.99480914862356
79798,9.288484497070312,-3.582649841308594,1.4723382568359376,30.867156639448826
79865,5.904471588134766,-1.0554551696777343,-0.32901580810546877,28.363241157067517
79932,3.921694793701172,-1.7030085754394533,0.6033952331542969,35.46542663478131
79998,7.986641693115235,-3.5551071166992188,1.8167720031738281,27.551122663950714
80065,19.89168502807617,-2.305056610107422,16.722325744628908,31.248301494138595
80133,7.821085968017578,-2.1716839599609377,3.6015106201171876,33.81656482585787
80198,4.681963806152344,-0.2859054565429688,-1.457219696044922,27.024305364455255
80265,6.572083282470704,1.4097683715820313,-1.7224681091308596,30.141003215196207
80333,7.79818359375,0.937500457763672,4.407584381103516,31.743505974793802
80398,12.510983276367188,-1.6223263549804687,11.440858612060547,37.281913985899465
80465,17.32167938232422,-5.144501953125,7.775131530761719,31.577588860468637
80533,13.106894073486329,-5.601351928710938,6.337820434570313,32.060158767633446
80598,5.804030456542969,-3.9245388793945315,-1.218915252685547,22.648178230095365
80665,3.5982174682617187,-3.160078582763672,1.2951068115234377,29.258275746247424
80733,3.2326776123046876,-2.4995022583007813,2.2037173461914064,25.14547752660286
80798,7.1226383972167975,-1.9473005676269532,5.77963119506836,31.099158630237934
80865,20.788919219970705,-1.4165043640136719,10.40441390991211,33.8721180031373
80931,10.873238983154298,-3.2756382751464845,3.656895446777344,28.603380065709935
80998,8.257877655029297,-4.518952789306641,0.7803273010253907,24.94154594018443
81065,9.130413208007813,-4.464466094970703,1.3816268920898438,15.563025007672874
81132,8.400980072021484,-3.782633972167969,0.9752220153808594,30.338256939533103
81198,8.986412658691407,-2.2465283203125,1.706451416015625,30.515383905153275
81265,10.640173645019532,-0.5057981872558595,2.482587432861328,18.325089127062363
81333,12.367132415771485,-0.3830534362792969,7.07773178100586,21.958996524092335
81398,9.558672637939454,1.2543914794921875,4.1869432067871095,31.119342763326813
81465,5.071453857421875,3.1129266357421876,5.741759948730469,32.29425847920695
81531,4.754712524414063,7.071295166015625,6.891519012451172,31.1092624226642
81598,11.365415496826172,5.810018005371094,11.009306030273438,31.818435879447726
81665,18.07431427001953,4.193379821777344,15.794555053710939,37.788744720027395
81731,15.816858673095703,-2.3299049377441405,11.946656799316408,35.078558716958305
81798,2.8897407531738284,-5.479056243896484,3.630550231933594,39.42851006554338
81865,-2.5703050231933595,-5.174739074707031,-0.6301895141601562,39.89538803320502
81933,3.792214050292969,-4.657564544677735,0.46657974243164063,31.818435879447726
81998,12.243938598632813,-1.9145187377929689,-0.10208770751953125,27.05007959333336
82065,16.54659118652344,0.59396484375,11.063193969726562,32.0112389720738
82133,13.194461975097656,7.014563140869141,8.604107666015626,27.48962861256161
82198,1.7868342590332031,8.663983154296876,3.8410125732421876,30.81707270097349
82265,-5.886508941650391,10.423424377441407,10.916349334716797,32.43286146083446
82333,7.104825439453125,7.597600708007813,18.07461364746094,40.85647288296856
82398,16.155454559326174,4.120631103515625,21.69124282836914,37.149162479935846
82465,12.169393615722656,-2.9400361633300784,8.717571716308594,42.612866650984586
82533,0.719553680419922,-5.759123840332031,1.898052978515625,39.05202028662319
82598,-0.4550537109375,-5.958359527587891,-2.185155944824219,34.31524584187451
82665,5.478906555175781,-4.413571929931641,-6.231840820312501,33.265406685165615
82733,9.77302688598633,-0.9545649719238282,4.352049865722656,34.294292643817876
82798,21.33438491821289,5.232219543457031,19.451151123046877,27.307822756663892
82865,11.143726501464844,10.323282623291016,6.07421859741211,48.80052911147167
82933,3.434158630371094,10.173593902587891,2.9608428955078128,40.400878434698804
82998,-1.7944683837890625,10.972781982421875,3.0000613403320315,39.98433718864469
83065,-1.5176939392089845,7.382348327636719,10.512489166259765,47.72886215949434
83132,18.2786393737793,8.57551712036133,27.255322265625,54.46025840126811
83198,18.43296844482422,-0.16450790405273438,17.40790008544922,39.941411111261225
83265,3.7244050598144534,-4.626578979492188,5.801036682128906,35.08664363052943
83333,1.936373291015625,-5.591322784423828,0.21001327514648438,33.94976719554564
83398,4.411775665283203,-10.500514068603517,2.38783447265625,34.307198878632825
83465,6.306685180664063,-1.7287550354003907,0.4981640625,43.22343361148676
83532,12.72952880859375,4.6994773864746096,12.22223373413086,32.69512944217916
83598,17.190402374267578,6.568490753173829,17.724641418457033,47.07229419327294
83665,3.9951919555664066,10.939551086425782,6.437363433837891,40.67331280208168
83733,-3.6191738891601566,9.997559967041017,10.516830139160156,26.042260530844704
83798,-3.5091526794433596,7.058272247314454,7.279063110351563,28.86490725172482
83865,14.852863311767578,5.517376556396485,23.073917541503906,42.39924813262151
83933,10.322683868408204,-1.0520123291015626,11.925401000976564,37.29974285699556
83998,1.071621551513672,-5.717959442138672,5.619015197753907,30.849335749367164
84065,1.8517991638183595,-5.720204772949219,-1.1286529541015626,29.489017609702138
84133,6.862479400634766,-3.5684294128417973,-5.0918115234375,44.368779277106576
84198,11.84382064819336,0.33709899902343754,3.836521911621094,31.287222843384267
84265,20.921693115234376,6.161337432861329,18.632353820800784,29.28907690243953
84332,11.517199859619142,9.371112670898437,11.55641830444336,50.198014777812645
84398,0.7764353942871094,11.352392578125,2.7006838989257815,40.177009712241166
84465,-6.673422546386719,8.569529571533204,7.2090087890625005,33.121773564397785
84533,2.6676026916503908,8.471333770751954,8.850195922851563,42.47039880429746
84598,20.98216735839844,5.25272689819336,30.790969848632812,42.92699003043929
84665,9.748927001953126,-0.41089553833007814,13.20029983520508,41.791494803611485
84733,1.5834072875976564,-2.695295104980469,4.146676940917969,36.14897216033135
84798,-0.6104306030273438,-3.446133728027344,-0.042361907958984375,32.245330626060856
84865,7.258106689453125,-5.290298767089844,0.6194119262695312,30.21189299069938
84933,9.513167266845704,-2.902464294433594,2.279609527587891,34.52246574520437
84998,5.487289123535157,0.03442840576171875,4.832700347900391,34.01055725771844
85065,18.163828125000002,2.6301805114746095,19.95485366821289,32.9269900304393
85132,12.34722381591797,8.829389190673828,11.93722640991211,32.74388795550379
85198,5.380710754394531,10.311008148193359,6.561904449462891,31.821292140529984
85265,-2.1285736083984377,13.000315704345704,9.708061981201173,37.45777217889759
85332,0.6129753112792969,6.308331756591797,13.045372009277344,43.396104216255594
85398,10.219698028564453,4.8015650939941406,16.55811721801758,44.22294300893562
85465,15.685731353759767,2.4051983642578127,22.3837028503418,38.5076872692888
85533,6.982978820800781,-4.337230682373047,5.417683868408203,33.525683861793084
85598,-1.0419831848144532,-5.239105224609375,-1.1418255615234376,32.55995726722402
85665,4.646038513183594,-5.927523651123047,-0.07903564453125,34.33449793761596
85732,4.925207977294922,-3.2422576904296876,-2.667902069091797,44.49416683330802
85798,9.141190795898439,0.33365615844726565,2.9117449951171874,41.99124114623325
85865,26.928252410888675,1.1909234619140625,24.557183074951173,35.219222448835005
85933,11.010503540039062,5.2153047180175784,15.326328735351563,28.633228601204557
85998,2.9940737915039066,8.806636505126953,7.588619384765625,39.93876914941212
86065,0.9572593688964844,9.15136962890625,3.483705596923828,34.30880946452891
86133,2.308649139404297,3.9715411376953127,9.172026672363282,36.667051361198986
86198,18.381176147460938,6.606361999511719,16.07192825317383,37.94139355767774
86265,8.059839477539063,-1.3521382141113283,9.402696990966797,24.871383754771866
86332,-0.35161880493164066,-2.9449758911132813,1.3918057250976563,22.405492482826
86398,1.9005976867675782,-3.4861006164550785,1.7609381103515627,18.808135922807914
86465,6.484066314697266,-1.7405804443359376,-2.8946804809570312,23.944516808262165
86533,7.687863006591797,-0.15522720336914064,-2.1930894470214843,32.38046103128796
86598,13.516143035888673,-0.34682876586914063,13.499826965332032,31.3481437032046
86665,20.73413314819336,3.3883538818359376,13.292059020996094,30.417873189717515
86732,10.28136978149414,5.629044342041016,5.318140869140625,39.35759103745312
86798,5.109325103759766,5.868995361328126,6.424639892578125,36.784273224338676
86865,-0.9086105346679688,4.398153991699219,5.603597259521485,26.73020907128896
86932,-0.6141728210449219,3.607947235107422,-0.7373666381835938,28.621313793130373
86998,13.839919738769533,0.9656419372558595,19.358942871093753,34.69232742506612
87065,11.921509094238282,-1.483714599609375,11.83468963623047,29.72665592266111
87132,4.6150529479980476,-2.0996836853027343,4.927602996826172,19.54242509439325
87198,3.1931597900390627,-0.27198440551757813,1.8793418884277344,17.075701760979364
87265,4.902006225585938,0.3113525390625,5.103187866210938,19.030899869919434
87332,8.579259338378908,0.5763015747070312,7.378905487060547,22.69512944217916
87398,9.650731201171876,0.17962646484375,6.674320678710938,20.569048513364727
87465,7.7935432434082035,-0.258662109375,4.447401580810547,24.927603890268376
87533,8.806187438964844,0.3429368591308594,5.43953842163086,28.1888541459401
87598,9.113648071289063,1.6480728149414063,4.122427368164063,28.567288903828825
87665,9.400152282714844,2.6936485290527346,4.372557220458985,34.80581786829169
87733,9.553433532714845,2.4430696105957033,6.492448883056641,26.82145076373832
87798,7.755971374511719,2.027384033203125,4.947960662841797,29.66610986681934
87865,7.621700592041016,2.0410057067871095,3.8148170471191407,7.781512503836435
87933,9.198970642089844,2.6632617187500003,4.200415191650391,10.413926851582252
87998,9.05452102661133,1.8360818481445313,6.326444091796875,12.041199826559248
88065,7.829318847656251,1.608255615234375,4.974156188964844,22.78753600952829
88133,7.076234893798828,1.1395802307128906,5.096751251220703,29.180303367848804
88198,7.057673492431641,0.9717791748046876,4.963977355957032,34.77410687907251
88265,6.687343597412109,0.4751119995117188,5.397775268554688,31.961761850399736
88333,8.817563781738281,0.0032931518554687503,4.7963259887695315,27.81755374652469
88398,10.924881591796876,-0.5309458923339844,5.2188972473144535,24.653828514484182
88465,8.234825592041016,-0.0676593017578125,3.2936009216308597,21.64352855784437
88533,8.032296752929687,0.7279362487792969,2.3574476623535157,17.853298350107668
88598,7.75746826171875,1.5112573242187501,2.894530792236328,17.708520116421443
88665,5.241051177978516,2.365381164550781,3.622616729736328,16.127838567197355
88733,3.8169126892089844,2.0706440734863283,3.905977478027344,19.294189257142925
88798,6.703360290527344,1.2593312072753906,5.538782043457031,25.888317255942074
88865,13.972244567871094,0.9193881225585938,8.59093505859375,29.273703630390237
88933,15.72225540161133,2.454595642089844,11.62198196411133,47.99636871557091
88998,8.840615844726562,4.306544494628906,-0.12079879760742188,39.260335966788446
89065,5.106031951904297,2.1869522094726563,2.5774900817871096,23.673559210260187
89131,1.8230589294433595,0.9455836486816407,-0.2411485290527344,27.97959643737196
89198,4.999004516601563,-0.4132905578613281,0.9225315856933595,40.805904144535006
89265,17.05448501586914,-0.09175918579101563,5.1343231201171875,34.46226401778163
89332,11.783795471191407,0.6755451965332031,12.591815185546876,33.525683861793084
89398,1.4332695007324219,2.250120849609375,3.023861846923828,35.69139725472459
89465,2.3980133056640627,2.6062303161621094,-1.3172607421875,40.25428761407241
89532,10.692714385986328,2.076332244873047,-0.3095562744140625,38.573928109209014
89598,22.83561309814453,-1.1993060302734375,9.181906127929688,36.61812685537261
89665,10.302026824951172,0.5484594726562501,9.141190795898439,52.18038959935087
89732,3.8550833129882816,2.178120574951172,-1.8591339111328127,33.48110068480238
89798,4.216132507324219,1.7049545288085939,-0.6556365966796875,32.92477593667784
89865,3.948938140869141,2.5369244384765626,2.597398681640625,33.08777773664721
89932,9.84682342529297,4.960684204101563,3.909719696044922,39.265482246356186
89998,19.18126235961914,2.6975404357910158,17.850230255126952,39.476297473843545
90065,3.2864158630371096,1.7648300170898439,3.1992970275878907,42.04119982655925
90131,5.199886779785157,2.2670356750488283,-2.538720703125,38.082785095827674
90198,11.581416320800782,-0.33545242309570317,-1.2145742797851564,39.72480549876476
90265,19.593505096435546,-4.349056091308594,3.746558990478516,34.32969290874406
90331,10.425669708251954,-0.8030799865722656,12.479398956298828,35.23486332343228
90398,4.767136688232422,3.976630554199219,-1.1464659118652345,29.4546858513182
90465,10.109227752685547,2.3382875061035158,6.74677001953125,24.78566495593843
90531,8.602012023925782,1.6672329711914062,9.147178344726562,22.92256071356476
90598,8.042176208496095,-0.3224295043945313,5.388344879150391,25.50228353055094
90665,10.291099548339844,-1.0829978942871095,7.977360992431641,20.89905111439398
90731,8.696166229248048,-1.0873388671875,5.698050842285157,26.570558528571038
90798,7.874973907470704,-0.5321434020996094,1.477427673339844,21.5836249209525
90865,7.499255218505859,-1.6935781860351564,-0.9565109252929688,24.62397997898956
90933,10.969189453125,-2.335892486572266,4.884941711425782,21.702617153949575
90998,5.553301849365234,0.21689895629882813,3.2789314270019534,18.260748027008265
91065,1.3886622619628908,3.5115476989746095,0.37781433105468754,20.827853703164504
91133,3.090473327636719,3.7161721801757817,2.459235992431641,34.05858399317636
91198,7.1066217041015625,3.8898110961914063,5.086273040771484,34.25860145077841
91265,17.03906707763672,2.2423370361328128,8.199798431396484,39.451237701221196
91333,11.329939270019532,2.1947360229492188,7.8306660461425786,33.89874558390985
91398,5.898933105468751,2.467917938232422,-1.8185682678222657,31.652443261253108
91465,4.494553527832031,1.0337503051757813,-1.3704002380371094,32.920344359947364
91531,7.582631835937501,-1.6830999755859375,2.3800506591796875,30.182843084265308
91598,23.14831283569336,-1.400936737060547,10.41593994140625,28.767949762007007
91665,5.2681448364257815,2.005679168701172,5.948180694580079,30.565237240791006
91733,1.4867083740234375,3.7148249816894534,2.032473449707031,34.935974490005265
91798,4.0513252258300785,3.237916717529297,-0.6701564025878907,33.991543339582165
91865,13.191468200683595,1.0000703430175781,6.344107360839844,35.481436374348455
91932,19.362385711669923,0.07559280395507813,7.779921569824219,34.84299839346786
91998,10.266999664306642,2.054777069091797,5.923482055664063,35.917322389518354
92065,3.22130126953125,3.0958621215820314,-3.30752197265625,38.30716949436898
92133,1.9478993225097658,2.4566912841796875,0.1728904724121094,36.16685520895512
92198,7.420968017578125,4.332290954589844,5.195845184326172,27.075701760979364
92265,16.778608703613283,3.5173855590820313,10.588680725097657,30.64083435963596
92331,10.989996185302735,1.096769256591797,10.632090454101563,45.178949583575694
92398,3.8694534301757812,1.3296849060058595,1.7839901733398438,31.64352855784437
92465,5.531147918701172,2.3140379333496095,-2.042502593994141,33.67355921026019
92531,10.56532928466797,0.46613067626953125,0.6489006042480469,41.20541028862419
92598,17.414785766601565,-3.6284545898437504,6.370003509521485,34.996870826184036
92665,14.705719299316407,-1.8744021606445314,11.631711730957031,33.81836799998344
92731,6.485413513183594,2.9608428955078128,1.9805314636230469,27.31588765186739
92798,5.287754058837891,3.7410205078125003,3.210523681640625,23.03196057420489
92865,6.776258697509766,3.439996490478516,7.5327854919433594,22.671717284030137
92931,7.026687927246094,2.1546194458007815,5.936654663085938,31.947917577219247
92998,11.70011947631836,-1.6037649536132814,8.002508697509766,31.215598441875013
93065,10.480755157470703,-3.3919464111328126,6.776857452392578,29.4101424370557
93132,7.985893249511719,-2.2370979309082033,2.9256660461425783,30.4688519083771
93198,7.869435424804688,-2.412682800292969,0.20402572631835938,27.323937598229687
93265,8.973539428710938,-3.393592987060547,5.292843475341797,25.774917998372256
93333,3.4182916259765626,-0.031734008789062504,1.2888198852539063,24.800069429571504
93398,-0.5406756591796875,3.8711000061035157,0.2315684509277344,24.099331233312945
93465,6.770271148681641,4.0812629699707035,6.985074462890625,29.684829485539353
93533,13.038186950683594,3.486998748779297,6.352489929199219,33.55834495884936
93598,14.695241088867188,-0.16720230102539063,12.418924713134766,36.787914343662436
93665,11.93528045654297,0.7625143432617187,5.656138000488282,33.342526423342306
93732,5.111121368408203,2.002236328125,-0.36703674316406254,32.03304916138483
93798,3.117267608642578,0.9397457885742188,-0.4698728942871094,33.28175661438323
93865,4.754263458251954,0.7120692443847657,0.9403445434570313,36.27877694579971
93932,17.07319610595703,1.272952880859375,5.465733947753907,31.812717715594616
93998,9.992620239257812,1.7378860473632813,11.535761260986328,44.946137011969384
94065,3.5256184387207035,4.644391937255859,5.5146821594238284,34.915017662373266
94132,4.255051574707031,3.7779936218261723,0.43529479980468755,29.49877704036875
94198,4.903203735351563,2.618504791259766,2.3906785583496095,39.27832132866582
94265,10.52132080078125,3.686683502197266,1.2600796508789063,31.939589780191866
94333,14.548246765136719,1.5317646789550783,12.435540161132813,33.380578754197565
94398,7.756121063232422,2.8684849548339844,6.22944580078125,36.41275757231913
94465,4.561015319824219,4.002227325439454,-2.1311183166503906,30.718820073061256
94533,5.3105067443847656,2.887046356201172,6.2384271240234375,30.86359830674748
94598,9.605375518798828,5.170996856689453,9.756411437988282,28.60936620700094
94665,10.2650537109375,4.497696990966797,14.99042724609375,32.88696260590256
94732,0.8740324401855469,3.902384948730469,8.047115936279297,26.972293427597176
94798,-0.6515950012207031,2.349214782714844,7.28130844116211,31.392492175716068
94865,3.037034454345703,1.7461189270019533,5.053191833496094,35.46419266835191
94932,3.9574703979492187,2.4565415954589844,5.557193756103516,28.169038393756605
94998,6.760990447998047,3.4898428344726566,10.075098724365235,29.91226075692495
95065,7.823181610107422,2.313439178466797,16.695381774902344,30.166155475571777
95133,4.312382354736329,2.0407063293457033,11.655661926269532,24.800069429571504
95198,2.0514839172363284,-1.129251708984375,8.200995941162109,23.138672203691534
95265,2.8517198181152343,-2.8192373657226564,7.8183915710449226,18.976270912904415
95333,4.932393035888672,-1.670526123046875,10.50979476928711,28.413594704548547
95398,10.850037231445313,0.2543211364746094,13.904285888671875,23.22219294733919
95465,10.658435668945312,-1.5852035522460939,7.552095336914063,27.723217067229196
95532,8.170459442138672,-0.31569351196289064,3.1525941467285157,23.673559210260187
95598,7.948770446777345,-0.17019607543945314,3.0135333251953127,25.13217600067939
95665,7.923323364257813,-1.948198699951172,4.793781280517578,24.683473304121573
95733,5.289550323486329,-1.2645703125,1.4385086059570313,23.242824552976927
95798,7.633825378417969,-0.6728507995605469,6.2051962280273445,25.71708831808688
95865,8.293503570556641,0.05239105224609375,5.531746673583985,24.82873583608754
95933,15.158078613281251,-1.1121871948242188,10.61996566772461,23.560258571931225
95998,19.16150344848633,1.276395721435547,12.250075836181642,29.48412965778601
96065,5.674100646972657,10.037826232910156,6.370901641845704,28.027737252919756
96133,3.583697662353516,9.776020660400391,11.867471466064453,30.261245167454504
96198,4.5497886657714846,5.968538360595703,8.157137145996094,39.69974730121715
96265,9.393865356445312,2.5795857238769533,13.283526763916017,33.4966598409663
96333,11.07022933959961,0.28575576782226564,13.174403686523439,35.3567380342575
96398,5.503305816650391,-3.8781353759765627,5.584586791992188,28.756399370041684
96465,1.4227912902832032,-3.886967010498047,2.6366171264648437,24.440447959180762
96533,7.054679718017579,-2.9660820007324222,2.6565257263183595,30.0
96598,8.182584228515626,-0.4165837097167969,-1.5634986877441408,32.64581729238078
96665,8.559201049804688,3.543581085205078,4.076323242187501,30.989896394011772
96733,18.761385498046877,4.016447753906251,18.64567611694336,32.97103650149256
96798,4.7116021728515625,10.776839447021485,5.2647019958496095,42.39024046600094
96865,0.08846603393554688,11.968661041259766,8.920100555419923,27.671558660821805
96933,-3.5307078552246094,8.582402801513672,7.023245086669922,38.48373883844602
96998,3.8974452209472656,6.286626892089844,22.25482086181641,38.13514271541883
97065,17.04385711669922,2.9530590820312503,22.91225372314453,38.99765801944386
97133,1.5371534729003906,-3.950285339355469,3.6549494934082034,36.31849462159818
97198,-0.7393125915527344,-4.855752410888672,0.6331832885742188,35.278875659527046
97265,6.060596923828125,-7.657176818847657,-2.023492126464844,26.434526764861875
97332,6.503675537109375,-5.4091516113281255,2.8294161987304687,40.88384186097703
97398,11.420950012207031,2.238894195556641,12.459190979003907,29.49390006644913
97465,23.62971176147461,7.768694915771484,27.25143035888672,49.568500834811964
97533,5.806275787353516,8.903335418701172,8.435408477783204,43.27256735425533
97598,-5.701194305419922,10.94179641723633,5.773793334960938,37.785130117389244
97665,-3.6694692993164066,7.3339988708496096,5.015769653320313,37.269715836828766
97732,4.745731201171875,5.687572631835938,22.242097320556642,45.829946189238804
97798,14.860048370361328,5.592520294189454,24.055875549316408,44.87407073939206
97865,4.683011627197266,-2.266586608886719,6.034102020263672,38.727388274726685
97933,0.5167254638671875,-6.330934753417969,0.06930587768554688,33.893433112520775
97998,7.025340728759766,-5.656138000488282,-0.35057098388671876,28.155777483242673
98065,9.585167541503907,-2.634521484375,-1.5259268188476562,42.15637563435061
98133,10.115814056396484,2.0776794433593753,11.258388061523439,35.4082981411108
98198,15.396532745361329,4.738695831298829,21.582269439697267,45.46122971765263
98265,4.348307647705078,10.529553680419923,6.38751708984375,40.07064656378332
98332,-1.884730682373047,10.376422119140626,8.985364837646484,33.567904603517164
98398,-0.09415420532226564,7.7758799743652345,8.16312469482422,38.57754522059442
98465,10.38046371459961,5.771847381591797,17.621655578613282,34.31524584187451
98533,11.16408416748047,-0.8138575744628906,13.631702728271485,34.452927694259714
98598,-0.45041336059570314,-3.562741241455078,2.1372555541992186,29.758911364017926
98665,2.189197540283203,-4.1692799377441405,-3.171903991699219,30.71145290451083
98732,5.2982322692871096,-3.885919189453125,-3.963457946777344,33.10055737750891
98798,9.322613525390626,-1.8705102539062501,7.911198577880859,39.835811867057906
98865,17.711468811035157,3.7664675903320313,17.018260345458984,32.59354927308034
98932,9.539512481689453,8.96306121826172,11.924502868652345,45.1313766121164
98998,0.7393125915527344,12.331057434082032,6.527176666259766,33.97592434038116
99065,-6.1152333068847655,8.724307708740234,6.930887145996094,28.536982117761745
99133,1.2365785217285157,6.154451751708985,13.615686035156251,33.86677283960837
99198,16.082406463623048,4.743934936523438,28.461214599609377,44.12930708529595
99265,10.334209899902344,-0.7650590515136719,14.932198333740235,39.41958416530814
99333,5.667514343261719,-3.1701077270507816,-0.8939410400390625,37.87885350940925
99398,0.24863296508789065,-4.126918029785156,-1.5175442504882812,35.006480633719114
99465,4.206851806640625,-5.800138549804688,0.662222900390625,21.271047983648078
99533,5.588329010009766,-2.4613316345214846,-2.5147705078125,37.88380515319564
