relative_time,AccX,AccY,AccZ,DecibelSource
0,-0.30566436767578126,6.378835144042969,7.5399705505371095,37.67081621363322
15,-0.21270767211914063,6.546336822509766,7.639064483642579,42.915464396922104
81,-0.5622308349609375,6.996450805664063,8.158334655761719,41.98629599092019
148,0.5361849975585937,6.669979705810547,10.726244659423829,43.562745009039084
215,1.9330801391601564,5.646408233642578,8.314609680175781,42.59569989643559
283,0.17199234008789063,6.327042846679688,7.801476745605469,40.83753377570011
348,-0.9668394470214844,4.845872955322266,7.149282989501954,39.795483747040954
415,0.3335064697265625,4.589905242919922,6.542145538330079,32.506639194632434
481,0.08472381591796875,5.460494842529297,7.439230041503906,33.494717992143855
548,-1.375789031982422,6.156098327636719,8.118218078613282,27.09269960975831
615,-1.4410533142089845,6.6894392395019535,8.095016326904297,36.25621081424907
681,-1.3718971252441408,6.335874481201172,10.899135131835939,31.869563354654122
748,-3.679797821044922,7.855214996337891,8.81891098022461,34.396484295634735
815,-1.7188755798339845,5.353916473388672,8.489895172119141,32.0194306340165
881,-1.4557228088378906,4.216132507324219,6.107150115966797,41.20343562438025
948,-0.9156459045410157,3.8016444396972657,4.505929870605469,43.625201722887965
1015,-0.15492782592773438,5.531447296142578,4.571942596435547,36.10021024664145
1081,-0.6210585021972657,7.575746154785157,8.108338623046876,42.85872227069257
1148,2.504741363525391,6.146817626953125,6.708150329589844,50.197641317878904
1215,-3.669169921875,6.678661651611328,9.532028045654297,44.74478510408296
1281,-2.4519012451171878,5.027145996093751,10.279573516845703,38.666417205660395
1348,-3.557502136230469,3.6095938110351566,8.180189208984375,38.02568498313956
1415,-4.107159118652344,2.7463389587402345,7.691305847167969,49.320676922007216
1481,-4.612059173583985,1.9639160156250002,8.65649871826172,56.970566371243606
1548,-0.4435276794433594,4.32824935913086,7.123386840820313,57.79661414151369
1615,-3.3825160217285157,1.3334271240234377,9.797426147460937,56.76543637849234
1681,-2.9547056579589843,-0.7812254333496094,16.54674087524414,58.76302727626012
1748,-1.0386900329589843,-0.39577697753906255,10.778785400390625,50.053135270029856
1814,-2.477498016357422,2.5355772399902343,12.549004211425782,47.16495821501741
1881,-0.32482452392578126,0.2041754150390625,10.43315414428711,45.223790192285634
1948,0.10568023681640626,0.8051756286621095,7.847880249023438,50.052920758068296
2015,2.0986358642578127,1.4597644042968752,5.931565246582031,47.456368234869586
2081,4.499493255615235,1.8678158569335939,6.577472076416016,37.137424784090825
2148,2.754122772216797,2.215093688964844,9.985734558105468,33.93926006585837
2215,3.768263854980469,5.919590148925781,7.308402099609375,31.156105116742996
2281,4.656816101074219,2.960244140625,13.184432830810547,43.95763089417763
2348,4.452191619873047,3.423381042480469,6.425687713623047,42.31112629056352
2415,3.9549256896972658,3.8972955322265626,3.124452667236328,50.37991907858392
2481,1.0964698791503906,4.533472595214844,2.5610243225097657,52.71500075014056
2548,0.20791763305664063,5.077142028808594,9.398655395507813,49.99134892913685
2615,3.613635406494141,6.350843353271484,13.443094940185548,48.04834292754859
2681,5.908662872314453,6.888225860595703,12.494517517089845,45.69104586956974
2748,5.231321411132813,7.478298797607422,8.3011376953125,43.8388714426039
2815,3.82005615234375,5.03238510131836,7.749834136962891,59.75867263321703
2881,4.57014633178711,2.8363018798828126,6.950346679687501,50.38365788778816
2948,3.3165032958984377,1.285975799560547,3.045117645263672,45.519620658640946
3015,3.6980598449707034,0.5893244934082031,-0.03457809448242188,49.15362894863954
3081,6.390810241699219,-2.115550689697266,-0.7036866760253907,54.27680816331463
3148,8.838370513916017,-6.048322448730469,3.320395202636719,50.066114958434355
3215,10.177336120605469,-8.715775451660157,3.1416668701171875,55.61882172807895
3281,14.026731262207033,-12.10772186279297,2.561323699951172,51.89428547971889
3348,17.63587600708008,-8.591683502197267,3.6753071594238285,55.75223649645675
3415,12.656480712890625,-5.344635772705079,2.389031982421875,46.422666189026735
3481,7.9275146484375005,-6.861281890869141,2.7725344848632814,60.265308131834615
3548,11.81597854614258,-4.672533416748047,5.97841781616211,59.76966816742569
3615,15.91625198364258,-1.904938659667969,5.728287963867188,64.93323907875524
3681,13.531261596679688,-1.5176939392089845,4.535418548583984,62.556889867676446
3747,16.00396957397461,-6.818021850585938,3.9707926940917972,59.145895929470285
3815,16.025674438476564,-8.803193664550781,4.493954772949219,64.51056114999506
3881,12.234807586669923,-7.953111419677735,3.653302917480469,61.744145451045156
3948,9.018595733642579,-10.000553741455079,1.4157559204101564,50.762507507847516
4015,5.169350280761719,-6.774761810302735,-2.0951930236816407,47.19124035974352
4081,6.566245422363282,-5.164859619140625,-2.1441412353515625,49.009567132310885
4148,4.344715118408203,-6.3282403564453125,-0.42047561645507814,41.13542279953964
4215,9.11394744873047,-5.387147369384766,0.38080810546875005,49.5718571631565
4281,15.043417053222656,-1.8329383850097658,0.5289999389648438,43.85016090135945
4348,13.270653533935548,2.527793426513672,-1.9639160156250002,44.441072798376
4415,10.201585693359375,4.201762390136719,-2.126328277587891,55.980416059487304
4481,8.331524505615235,4.751119995117188,2.6705964660644534,58.07280600401769
4548,9.095835113525391,8.075556793212892,8.154293060302734,56.03018723124115
4615,9.723779296875,8.40696762084961,6.949298858642578,56.22428525969924
4681,10.177635498046875,6.540349273681641,4.547243957519531,55.22189842426671
4748,9.611363067626954,4.707859954833984,6.426436157226563,58.790448167771856
4815,12.074790344238282,3.9007383728027345,7.739954681396485,55.0689044989233
4881,10.170151062011719,2.770738220214844,5.807622985839844,51.894482016562264
4950,6.3179118347167975,0.7200027465820313,0.31868728637695315,51.99261380177078
5014,5.564678192138672,2.319576416015625,-1.6941769409179688,61.34835702443383
5081,7.6808276367187505,2.0341200256347656,0.8976832580566406,61.61117836478685
5148,7.079827423095703,1.0536589050292968,3.4322126770019534,58.859483645807735
5215,6.4586192321777345,2.329156494140625,6.86173095703125,59.8221422814779
5281,8.547225952148438,4.522096252441407,4.604874114990235,59.576671360895986
5348,8.910520477294922,4.714895324707031,7.060218200683594,50.3173961375964
5415,6.223308563232422,4.052373046875,6.124963073730469,50.05403610458412
5481,5.248685302734375,4.247267761230469,5.361849975585938,54.200845315593284
5548,5.139562225341797,5.005291442871094,13.028457183837892,62.11011820483304
5615,3.4813105773925783,5.776936798095703,13.243410186767578,63.87253821035077
5681,6.096222839355469,5.827980651855469,12.210108947753907,65.10639231164424
5748,6.703060913085938,3.041225738525391,12.603191528320313,62.50586124770177
5815,6.369554443359375,2.1894969177246093,10.487640838623047,60.79516970650175
5881,5.755830688476562,1.4852114868164064,6.131848754882813,59.91419249453058
5948,5.041815490722657,0.7018904113769532,1.3943504333496095,49.030302673948654
6015,5.586383056640625,0.9961784362792969,-0.6700067138671876,54.36796921734086
6081,7.490273895263672,0.85502197265625,-2.3572979736328126,54.02398958913232
6148,10.183323669433594,0.8599617004394532,0.23516098022460938,39.91004440330755
6215,13.109289093017578,0.1886077880859375,4.39007080078125,38.55276803830092
6281,14.088552703857422,0.9422904968261719,4.719535675048828,41.038721084030556
6348,10.438992004394532,1.3400134277343752,5.516628112792969,39.22154325231059
6414,6.8304460144042976,1.0337503051757813,3.5383419799804687,37.155855518931965
6481,9.774224395751954,0.8238867187500001,9.212143249511719,48.195834150639094
6548,7.474706268310547,3.2959959411621096,12.213851165771485,52.642769785753146
6615,6.626569976806641,4.609813842773438,13.96341293334961,52.61988070187269
6681,10.174192657470703,4.570296020507813,10.160870361328126,58.154495660533115
6748,11.750115509033204,2.058519287109375,9.692045288085938,59.01632658086457
6814,13.156141662597657,0.2625540161132813,9.803862762451173,60.96150550029046
6881,11.507769470214845,-1.4018348693847658,5.4750146484375,51.09477300958736
6948,7.532635803222656,-2.6101222229003906,0.06601272583007813,43.43152471662257
7015,6.027515716552735,-2.1306692504882814,-2.4131318664550783,45.658360170326816
7081,5.084027709960938,-1.5512242126464844,-4.605472869873047,50.72676260313857
7148,8.184829559326172,-1.4012361145019532,1.9365229797363281,42.8458863040394
7215,11.584110717773438,-2.4266038513183594,4.2715173339843755,46.56921908795358
7281,16.432827758789063,0.8449928283691407,2.651585998535156,48.86270702112662
7347,10.832823028564453,1.9594253540039064,0.1579216003417969,50.02006142806134
7414,7.71001693725586,-0.24189697265625001,1.7679734802246094,61.885491185989494
7481,10.05623794555664,1.2835807800292969,9.899663543701172,59.34698887436348
7548,10.512788543701172,3.2226484680175784,15.614928588867189,58.97035168012478
7615,12.01386703491211,4.28468994140625,10.10353958129883,63.19808277659335
7681,13.456417236328125,1.206042022705078,9.47903823852539,62.76777644278464
7748,13.11842010498047,-0.9235794067382813,9.217831420898438,52.18863596553355
7815,10.953172760009766,-2.485431518554688,6.656358032226563,58.137584059833635
7881,7.525450744628906,-3.6254608154296877,1.4230906677246093,59.587668887439655
7948,5.108277282714844,-3.310066680908203,-0.6276448059082032,50.058880247133175
8015,6.21073471069336,-1.891915740966797,-1.9823277282714844,55.72438252802477
8081,8.417894897460938,-2.5354275512695312,-1.5096107482910157,54.52261904093934
8148,13.102253723144532,-2.9722192382812502,6.16522933959961,48.83013768524721
8215,13.656700744628907,-0.5587879943847657,5.3528686523437505,48.274855863559274
8281,10.228230285644532,1.4111155700683595,0.7532336425781251,49.68721044765531
8348,6.163133697509766,0.12918136596679688,0.2377056884765625,61.01939096849007
8415,8.549321594238283,-0.24668701171875002,6.35398681640625,61.88474275071065
8482,10.177934875488281,2.3584954833984377,11.75715087890625,58.133100537523106
8548,13.517639923095704,4.078269195556641,13.13473617553711,57.13173737010994
8615,11.627071380615234,4.058959350585938,7.154522094726563,61.17718289404255
8681,12.683125305175782,0.37931121826171876,10.330467681884766,65.38811801658281
8748,12.574600982666016,-1.7263600158691408,8.60530517578125,61.02595249646369
8815,9.867480468750001,-2.5824298095703124,4.305945739746094,70.06978549517198
8882,5.687722320556641,-3.277584228515625,0.6035449218750001,66.1680874772438
8948,4.473447418212891,-2.5400679016113283,-0.9241781616210938,59.05745164759199
9015,6.148913269042969,-2.9713211059570312,-3.5592984008789066,55.840472567717626
9081,10.813064117431642,-3.3620086669921876,2.914888458251953,49.2485795967435
9148,10.88910598754883,-2.9153375244140625,1.8836828613281251,54.20015191574919
9215,14.26234130859375,-1.0844947814941406,3.606600036621094,49.837615602861646
9283,10.042017517089844,0.8390052795410157,0.9993218994140626,59.70121300715618
9348,6.483617248535157,-0.5559439086914063,0.5331912231445313,62.08397548535749
9415,10.890752563476562,-0.7273374938964844,3.350782012939453,63.139660848978714
9481,14.705120544433594,2.2231768798828124,7.261250152587891,63.45521345986092
9548,14.137201538085938,3.2036380004882816,10.627450103759767,70.25104527206776
9615,14.870227203369142,1.9383192443847657,8.685987396240234,64.3135588244687
9683,16.801211700439453,-1.3368699645996094,7.188501434326172,71.20571134603591
9748,14.388528900146484,-2.2600003051757813,4.30190414428711,68.43402350380202
9815,9.175469512939454,-4.029919738769531,1.4723382568359376,61.485135042464584
9883,6.756948852539063,-4.900359649658204,-1.018032989501953,52.25138632513968
9952,5.347030792236328,-4.3066941833496095,-2.0484901428222657,59.469884153483534
10015,5.260510711669922,-4.602329406738281,-1.961371307373047,55.53735001624793
10083,6.576573944091797,-4.824916534423829,0.9584568786621094,55.11902068645932
10148,10.113868103027345,-7.024292907714844,-0.8204438781738281,48.46380415688401
10215,13.22859100341797,-6.306685180664063,-0.6905140686035156,47.860269941512286
10282,12.4014111328125,-4.342918853759766,-0.540076904296875,54.427321196035656
10348,12.67010238647461,-5.679339752197266,0.9198371887207032,58.29387406677873
10415,13.979429626464844,-5.053790588378907,2.914888458251953,60.75565208676494
10481,17.038767700195315,-0.9967771911621094,3.343447265625,61.33437028818636
10548,16.669036560058593,0.4836442565917969,3.3139585876464843,63.04376553602648
10615,17.67554351806641,-3.666176147460938,1.0832972717285156,63.924711317597755
10683,15.587834930419923,-7.044351196289063,3.275039520263672,67.3586378643542
10748,12.362342376708986,-7.5612263488769536,2.161355438232422,68.69864448209393
10815,9.586814117431642,-7.352560272216797,0.8882528686523438,66.66077191395594
10882,6.766528930664063,-7.272177429199219,-1.309027862548828,59.247763720604965
10948,7.073540496826173,-5.691314849853516,-1.2674143981933594,63.04750897144054
11015,7.042854309082031,-6.344706115722657,0.33171020507812504,58.03203703281508
11083,6.264023895263672,-5.210065612792969,2.801274719238281,51.86077256617892
11148,10.041418762207032,-5.845643920898437,0.5965095520019531,48.55101014141317
11214,10.967991943359376,-1.8622773742675782,-2.0374131774902344,44.918797362198084
11282,8.591533813476563,-0.223934326171875,-3.5221755981445315,57.58216767865462
11348,8.973539428710938,-1.8372793579101563,-0.07274871826171875,56.39977283354877
11414,12.989238739013672,0.10044113159179688,3.9519319152832035,59.504665997962306
11481,15.025304718017578,1.6880397033691408,5.227279815673828,59.34121057109724
11548,16.033458251953125,3.1352302551269533,1.7648300170898439,62.520343790414344
11615,15.088024291992188,-1.3964460754394532,4.936734008789062,69.92879315272562
11683,14.586866455078125,-3.789070587158203,5.3880455017089846,65.2311537129824
11748,12.022099914550783,-2.532284088134766,1.5247293090820313,60.2556718274358
11815,7.633675689697266,-4.037404174804688,0.3203338623046875,62.41935278976425
11881,5.641169128417969,-4.235891418457031,-2.2866448974609375,62.6378538341751
11948,7.1278775024414065,-5.337450714111329,-1.3922547912597656,60.09028294250705
12015,5.04196517944336,-7.64295639038086,-2.025887145996094,57.92131735499765
12082,8.712033233642579,-8.563542022705079,1.6923806762695313,57.30695892522867
12148,12.98384994506836,-8.729846191406251,-0.641865234375,51.06911289508494
12215,13.293855285644533,-3.9520816040039066,-0.08666976928710939,53.0089099918915
12282,9.70027816772461,-2.8589048767089844,-0.6727011108398437,70.01777875370894
12348,9.351802825927734,-5.099295959472657,1.3528866577148437,66.36792998882069
12415,13.43845458984375,-2.566263427734375,2.2469773864746094,63.070336854451455
12482,17.702786865234376,-0.29593460083007816,4.134701843261719,55.51565875702744
12548,17.73796371459961,-0.21210891723632813,2.2040167236328125,60.09310641080199
12615,15.72180633544922,-5.90417221069336,2.960393829345703,58.307470899158645
12682,12.646301879882813,-7.046446838378906,2.219284973144531,66.09893723826221
12748,10.05953109741211,-6.256389770507813,1.2305909729003908,66.2313335966069
12815,8.291258239746094,-7.502398681640625,-0.610580291748047,64.74415731398669
12881,7.25735824584961,-6.245013427734375,-1.4762301635742188,66.12886909987408
12948,7.717501373291016,-7.846233673095703,-2.2246737670898438,60.413808406017466
13014,4.551135864257812,-9.27156967163086,4.4897634887695315,55.56185466764096
13081,7.058272247314454,-9.254056091308595,-1.8770965576171876,45.945803725082335
13148,11.199859771728516,-7.204368438720704,-0.42870849609375,44.555148326960285
13215,11.344908142089844,-4.842430114746094,-1.0671308898925782,45.79817881669936
13283,12.003987579345704,-5.144352264404297,-0.7068301391601562,59.27388843262081
13348,13.819113006591797,-4.374952239990234,0.8399034118652344,57.44870875263822
13414,15.360457763671876,-1.6851956176757814,0.8924441528320313,58.77976287086845
13481,17.01137466430664,0.19294876098632813,-0.34278717041015627,52.06080732328486
13548,17.14250198364258,-2.891087951660156,-0.4640350341796875,54.70799916996472
13615,16.410673828125002,-6.211932220458984,1.505419464111328,54.12930708529595
13682,12.350966033935547,-6.828350372314453,1.91841064453125,57.940060819134004
13748,9.680668945312501,-6.670728149414063,1.5563136291503907,60.63091182590503
13815,8.247998199462891,-7.694598999023438,-0.6325845336914063,59.68910961272546
13882,9.715546417236329,-7.903714141845703,-0.35521133422851564,59.74245876606008
13948,1.8784437561035157,-11.790381774902345,2.0184027099609376,48.880783527672264
14015,6.134992218017579,-10.377769317626953,0.20013381958007814,47.9523330588226
14081,10.705288238525391,-7.960745544433594,-0.5610333251953126,41.01747073946366
14148,11.921808471679688,-5.69775146484375,-2.0255877685546877,41.177351793304965
14215,10.865604858398438,-4.612508239746094,-0.6535409545898437,37.61251074308663
14282,11.879296875000001,-6.127956848144532,1.4699432373046877,47.477379889113934
14348,16.178207244873047,-3.1138247680664066,1.7537530517578126,54.478012412596364
14415,17.689165191650392,1.033450927734375,-0.38320312500000003,53.0253006095235
14482,15.577057342529297,-0.1790277099609375,-1.0777587890625,51.251102490571725
14548,18.65810028076172,-4.494852905273437,0.4926255798339844,50.88787927317032
14615,16.619339904785157,-8.14067138671875,3.125051422119141,64.12988100483766
14682,12.431498565673829,-7.151678009033203,1.8747015380859375,61.03243564535905
14748,9.705068206787109,-8.86875732421875,1.2449610900878907,51.90188777762244
14815,7.9361965942382815,-8.085136871337891,0.09385482788085937,57.983930303551034
14882,8.909173278808595,-6.940616912841797,-0.6629713439941407,53.09791933278369
14952,1.8462606811523439,-11.216475219726563,2.1305195617675783,40.31650793551264
15014,5.503904571533203,-9.400002593994142,0.15432907104492188,47.942858400428186
15081,10.795700225830078,-7.535928955078125,-0.9734257507324219,32.273724422896365
15148,11.52528305053711,-6.899302825927735,-1.4127621459960937,29.06335041805091
15215,12.969629516601563,-6.605613555908204,-1.136287078857422,42.87286539262812
15282,15.749498748779297,-6.053262176513672,-0.7502398681640625,41.68379612852774
15348,17.536033630371094,-2.1671932983398436,-0.7955955505371094,51.446053387147444
15415,18.488652648925783,1.5262261962890626,-0.6168672180175782,54.3899934361707
15483,18.371895446777344,-0.4843927001953125,-0.037571868896484374,55.85121057388057
15548,18.752703552246096,-5.928870849609376,1.3337265014648438,56.42289382146313
15615,15.676899719238282,-9.638157348632813,1.6628919982910157,62.619051494551705
15683,11.781400451660156,-8.90752670288086,2.6095234680175783,70.4985608294256
15748,10.147997131347656,-9.520052947998048,1.6196319580078127,59.33051256039821
15815,9.737101593017579,-8.557704162597657,-0.9376501464843751,52.8350475654383
15882,6.681655426025391,-9.035360870361329,1.1720626831054688,56.2421194284271
15948,-0.40969802856445314,-9.462422790527345,-0.0017962646484375,39.709509343454236
16015,6.1769050598144535,-8.808732147216798,-2.7406507873535157,46.08579514826188
16083,11.739637298583984,-8.864266662597657,0.3480262756347656,56.03201769344774
16148,12.836855621337891,-7.332951049804688,-0.5821394348144532,53.10429894987453
16215,14.086606750488283,-7.527396697998047,-0.8881031799316407,48.9644905171642
16282,17.44666946411133,-6.050567779541016,1.0014175415039064,46.30305807900436
16348,20.20004379272461,1.4829661560058593,-0.9114546203613282,52.03272281638844
16415,15.614629211425783,1.2585827636718752,-2.5355772399902343,54.27059070181134
16481,15.214660949707032,-1.9702029418945313,-1.6384927368164064,58.7048115834245
16548,18.38940902709961,-6.389912109375,1.8494041442871094,59.77654569837182
16615,17.156273345947266,-9.730066223144531,1.8995498657226564,61.74622019370463
16683,12.310699768066407,-9.23564437866211,3.000510406494141,55.96945490911254
16748,9.82002914428711,-9.87556365966797,1.9059864807128908,57.86512210460479
16814,9.387877807617189,-8.154143371582032,0.3183879089355469,56.296633731266745
16882,5.68817138671875,-8.791368255615234,0.8044271850585938,43.66964320315918
16948,0.14744338989257813,-8.900940399169922,-0.26884094238281253,41.217567584878154
17015,5.387746124267578,-7.8621006774902344,-2.368374938964844,38.67113779831977
17083,12.459041290283205,-9.41482177734375,-1.2793894958496095,44.34600836278021
17148,14.75661346435547,-8.547225952148438,-1.7154327392578126,48.790614558519394
17215,17.226926422119142,-7.237299957275391,-3.5459761047363285,52.557499664777616
17282,16.480428771972658,-3.8740937805175784,-2.606829071044922,54.21743734026939
17348,14.162798309326172,2.446362762451172,-2.5268952941894534,51.56691469995265
17415,15.00809051513672,0.9886940002441407,-2.718047790527344,56.753227349323616
17481,16.67442535400391,-2.578837280273438,1.3654605102539064,53.45055981363189
17548,18.19780746459961,-8.01223846435547,3.1686108398437502,62.21732864388808
17615,16.778309326171875,-9.807604980468751,1.7341438293457032,58.20969500895675
17682,12.485386505126954,-9.0196435546875,1.906285858154297,55.60607152218236
17748,9.083261260986328,-9.384734344482423,1.3671070861816408,62.672327600956415
17815,8.574169921875,-8.142168273925781,-0.8343649291992188,51.44346882912453
17883,5.718857574462891,-7.982300720214844,-2.0841160583496094,44.774685514050255
17948,0.42840911865234377,-9.427545318603515,0.7958949279785157,50.57297063053778
18015,9.578281860351563,-10.062824249267578,0.09714797973632813,61.32686407955176
18081,14.309343566894531,-7.270231475830078,-3.540587310791016,62.3182982385063
18148,11.674522705078125,-5.223687286376953,-1.4046789550781251,61.83026000764087
18215,11.219618682861329,-5.794151000976563,-1.7443226623535157,50.911637989422225
18282,13.837973785400392,-7.843838653564453,1.1933184814453126,55.102406293465656
18348,15.908468170166016,-4.679269409179688,3.214864654541016,59.91689814058538
18415,16.865278472900393,0.3335064697265625,0.6764433288574219,59.8719105128803
18481,15.12888931274414,-2.339035949707031,-0.858464813232422,55.35742111196683
18548,14.659615173339844,-3.6148329162597657,0.4483177185058594,57.28322933840977
18615,13.697266387939454,-8.022117919921875,2.2568568420410156,59.431882253681046
18682,10.815758514404298,-7.534132690429688,1.3880635070800782,59.43218418684931
18748,8.669521636962891,-7.866741027832032,1.077908477783203,57.98091710033934
18815,7.0310289001464845,-7.270231475830078,-0.9294172668457031,61.75630083071519
18881,8.024363250732423,-6.893015899658203,-1.0367440795898437,58.36579805686899
18948,5.91135726928711,-7.3110964965820315,0.0005987548828125,45.46345212016715
19015,6.164929962158204,-9.562414855957032,-1.2160711669921875,49.241189811354744
19081,11.244317321777345,-8.766070861816406,1.5552658081054689,44.502645085598516
19148,11.928245086669923,-5.714217224121094,-1.6359480285644532,55.24676472876533
19215,9.722731475830079,-3.7250038146972657,-2.5370741271972657,56.42645520993306
19282,8.43855194091797,-3.2159124755859376,-1.2710069274902345,55.36321030707151
19348,8.836873626708984,-3.7181181335449223,0.13906082153320312,51.5764410599659
19415,9.635912017822266,-3.6777021789550783,1.3730946350097657,61.304312325415
19482,15.143259429931641,-2.767145690917969,-0.04924758911132813,61.3745349392529
19548,17.638420715332032,-2.7857070922851563,-1.47772705078125,61.16027300876717
19614,14.271771697998048,-6.49289794921875,1.3826747131347656,54.45010729151108
19682,10.670560455322267,-7.356601867675781,1.2846286010742187,58.20787131991888
19748,8.871751098632814,-5.785618743896484,-0.4017645263671875,58.37303023094948
19815,6.62267807006836,-5.5516552734375,-0.8942404174804688,57.346670415483956
19883,7.104376373291016,-5.098697204589844,-1.2042457580566406,58.41172946608097
19953,4.9758027648925784,-6.838678894042969,-1.7377363586425782,42.81669563107719
20015,5.020859069824219,-7.766898651123047,-0.2547702026367188,43.29662240489461
20083,10.915151824951172,-7.494764556884766,-1.7929714965820314,35.05828033854836
20148,13.74307113647461,-6.989265747070313,-0.7295828247070313,50.01443798032974
20215,10.495125274658204,-3.8872663879394533,-2.3710693359375,43.97696735639364
20282,7.634573822021485,-2.6577232360839846,-1.071771240234375,39.27985947099429
20348,6.979535980224609,-4.086951141357422,0.039667510986328126,48.253157449068155
20415,8.931626586914064,-3.593427429199219,0.2219883728027344,49.852602696278936
20481,11.272458801269531,-2.9889843750000002,0.6077362060546875,61.60647074383551
20548,15.762970733642579,-2.9023146057128906,-2.20581298828125,55.618059438072194
20615,16.28029495239258,-2.6830206298828125,-0.12364288330078126,62.664327995161145
20682,13.332325286865235,-5.982908477783203,2.0838166809082033,60.634181826061564
20748,10.761571197509767,-5.180427246093751,-0.4740641784667969,58.57353004297593
20815,8.37298828125,-4.522695007324219,-0.7249424743652344,66.42507749682467
20881,6.452781372070313,-5.87498291015625,-0.4195774841308594,61.80684590879713
20948,7.992928619384766,-6.627318420410156,-1.3814772033691407,59.25566301146934
21015,5.2642529296875,-8.926387481689453,-2.4192691040039063,55.78397358639933
21084,7.185657348632813,-10.215057678222657,0.7071295166015625,47.84239170642273
21148,9.986333312988283,-9.505533142089844,0.5673202514648438,46.01810200179028
21215,10.714718627929688,-5.470224609375,-2.456092529296875,46.22400553324796
21284,7.566914520263672,-3.4218841552734376,-0.46373565673828127,58.089101440125646
21348,7.406897277832032,-4.742138671875,1.1570938110351563,53.35245214830944
21415,10.962303771972657,-5.1361193847656255,1.5196398925781252,52.620498346554754
21482,15.642022247314454,-2.1917422485351565,2.804118804931641,37.75901578891674
21548,17.921033020019532,-1.409169616699219,1.5250286865234375,42.26058310427113
21615,16.187787322998048,-4.314178619384766,0.53887939453125,60.17491195026576
21682,13.500874786376954,-7.125931549072266,2.3834934997558594,56.409264352891675
21748,11.412567443847657,-6.238127746582031,0.8647517395019532,55.635819344245846
21815,9.214687957763672,-7.1120104980468755,-0.25641677856445316,62.478638201773705
21881,7.253765716552735,-6.954537963867188,-2.1981788635253907,55.99743377011761
21948,9.449848937988282,-6.503974914550781,-0.9952803039550782,57.690426131126586
22015,4.849465484619141,-9.265731811523438,0.06915618896484375,56.33462395614305
22083,2.587668914794922,-8.966953125,2.215991821289063,48.63328809319186
22148,10.4853955078125,-8.664581909179688,-2.62494140625,48.74499212323685
22215,12.471465454101564,-6.91921142578125,-0.30416748046875003,51.3186557107068
22281,11.010802917480468,-4.175117797851563,-0.8158035278320312,54.64256987102806
22348,11.709849243164063,-5.921236724853516,1.1286529541015626,61.99175731561241
22415,13.40058334350586,-4.234244842529297,0.9545649719238282,58.13881088417911
22481,14.638509063720704,-1.2052935791015627,-0.3291654968261719,61.70516935117626
22548,15.920293579101564,-0.8345146179199219,-2.055824890136719,55.14274074204281
22615,15.170802154541017,-3.722608795166016,-0.12124786376953126,58.46402684408777
22681,14.552438049316407,-6.488257598876953,2.591710510253906,64.09826987042273
22748,11.901001739501954,-6.439459075927735,1.2635224914550782,66.48276755092654
22815,9.00003433227539,-6.83583480834961,1.0488688659667968,65.76140168823747
22881,6.554569702148438,-7.669151916503907,-0.3879931640625,65.99568694971796
22948,7.522906036376954,-6.5671435546875,-1.0451266479492187,67.56301169260769
23015,7.370073852539063,-8.850345611572266,-2.5366250610351564,59.568136277303154
23081,5.075645141601563,-9.671388244628906,3.776347045898438,54.094495537394316
23148,7.8317138671875,-9.161698150634766,-0.34143997192382813,49.44546824551128
23215,11.166628875732423,-6.148164825439453,-2.6375152587890627,48.18990845068984
23281,9.845625915527345,-3.993096313476563,-1.7377363586425782,64.75121654361512
23348,11.1943212890625,-4.875361633300781,-0.83107177734375,62.63568374908396
23415,13.958772583007812,-4.2309516906738285,-0.3897894287109375,56.731803957710326
23481,15.87463851928711,-0.599952392578125,0.43544448852539064,52.82479363534242
23548,17.10657669067383,-0.010777587890625,-0.018860778808593753,51.54585243851373
23615,17.401164093017577,-4.4071353149414065,0.35176849365234375,57.65663340214204
23681,16.640296325683593,-7.862699432373048,2.2409898376464845,59.24853312690271
23748,12.338541870117188,-7.157216491699219,1.272653503417969,65.82160784018411
23815,9.913734283447265,-7.976911926269532,1.120869140625,69.14707525940095
23881,7.166197814941406,-8.511450347900391,-0.1143621826171875,65.1951587189193
23948,6.823111267089844,-7.104376373291016,-3.19735107421875,56.944946371751726
24015,4.505780181884766,-9.838889923095703,-1.4513818359375001,54.43004681506019
24081,7.583829345703125,-10.604547729492188,0.9163943481445312,60.552422107180455
24148,11.080557861328126,-7.6351725769042975,-1.52083740234375,46.474905522683024
24215,10.430759124755859,-5.034331054687501,-2.3739134216308595,46.57342736814626
24281,10.82309326171875,-6.070775756835938,-0.7610174560546875,56.53165221356902
24348,13.994398498535157,-7.082372131347657,1.4994319152832032,61.43379579357468
24415,18.34495147705078,-1.9248472595214845,2.4147784423828127,53.788936947999176
24481,18.0535075378418,1.1175759887695313,3.772006072998047,55.22757125797882
24548,15.955769805908204,-1.1702664184570313,1.5679893493652344,55.91379634635118
24615,17.212107238769534,-6.070476379394532,2.0411553955078126,64.2958676450946
24681,13.239069213867188,-7.58787094116211,1.5661930847167969,65.37764836344375
24748,10.363399200439453,-7.892487487792969,0.5300477600097656,69.6179347834789
24815,8.078550567626953,-8.854536895751954,-0.6715036010742188,68.06595544201745
24881,7.325316925048829,-6.904691619873047,-2.0567230224609374,63.53228197456022
24952,8.46250213623047,-5.624553680419922,-2.6120681762695312,58.080008667686805
25014,7.018455047607422,-6.991361389160157,0.9984237670898438,63.85896957004684
25082,10.325677642822265,-1.5332615661621094,1.3169613647460938,60.237539756131255
25148,9.491163024902344,3.5215768432617187,-3.263962554931641,56.87008744877291
25215,6.857839050292969,3.9444474792480473,1.2061917114257814,67.52755272694577
25281,8.897198181152344,4.7608497619628904,9.670190734863281,67.78731948000299
25348,11.900702362060548,2.5909620666503907,6.335724792480469,58.44426846859568
25415,11.120973815917969,-0.13202545166015625,7.3815998840332036,62.339875059391744
25481,7.772886199951173,-1.6627423095703127,6.101162567138672,62.40283848220092
25548,9.726324005126953,-0.9827064514160156,5.771847381591797,60.50031562368402
25615,8.415350189208985,0.5478607177734375,4.537065124511719,59.89894563718772
25681,7.817044372558594,1.0767109680175782,0.6042933654785156,52.18892456728988
25748,10.479258270263673,-1.2762460327148437,-2.180515594482422,52.84719415507397
25815,9.08715316772461,-3.058290252685547,-1.857187957763672,48.514723847971446
25881,10.936707000732422,-1.4555731201171875,0.13157638549804687,45.892456750525064
25948,15.580200805664063,-3.8218524169921877,0.4650828552246094,47.07621266561133
26015,12.201277313232422,-2.0043319702148437,1.1115884399414062,49.34336823224619
26081,8.25712921142578,-1.6480728149414063,2.830763397216797,51.13458676572971
26148,6.237379302978516,-3.224744110107422,1.230890350341797,48.16771412333346
26215,8.591084747314454,-2.4171734619140626,3.4387989807128907,55.68633456347434
26281,10.47865951538086,-0.4317022705078125,10.608140258789064,61.97412894374652
26348,10.827583923339844,2.0829185485839843,9.723629608154297,64.56524840463622
26415,13.692027282714845,0.21674926757812502,12.598850555419922,68.22048959079535
26481,13.922248535156251,-0.49711624145507816,9.365873565673828,71.32155266947959
26548,9.529483337402345,-1.012943572998047,4.671784973144532,66.5697530002284
26615,6.530769195556641,-1.1490106201171875,-0.374820556640625,64.67773209678883
26681,4.979994049072266,-1.9682569885253907,-0.004340972900390625,52.223782659449554
26748,6.996001739501954,-2.830613708496094,-0.8354127502441406,56.8114441510528
26815,10.126292266845704,-5.506149902343751,-1.8157241821289063,49.834232983468716
26881,10.188113708496095,-7.310348052978516,3.433859252929688,41.24439010556526
26948,15.433505859375002,-5.3528686523437505,-1.55915771484375,47.369698704598406
27015,11.905492401123048,-2.1448896789550784,-2.0381616210937503,49.81379108901572
27081,6.818321228027344,-1.1064990234375,-0.3070115661621094,51.32471020375096
27148,7.457042999267578,-2.1639001464843752,1.0175839233398438,47.55554731257078
27215,12.42865447998047,-0.6015989685058594,5.572462005615234,62.68947292706906
27281,16.598084106445313,1.6078065490722657,6.190676422119141,55.600142880078415
27348,16.025225372314456,0.8008346557617188,5.097948760986329,58.366462351266215
27415,17.13831069946289,-3.6637811279296875,4.630620574951172,60.95783905303338
27481,13.6947216796875,-4.882696380615235,3.5281631469726564,64.96614047532057
27548,9.310339050292969,-4.41447006225586,1.7884808349609376,60.42518416484231
27615,6.849157104492188,-5.440885620117188,-0.13980926513671876,65.81489647200999
27681,6.954837341308594,-5.489384765625,-1.8688636779785157,66.48515255706974
27748,5.443430328369141,-6.885082397460938,-6.174510040283203,50.50963321866368
27815,6.459517364501953,-7.766748962402344,-0.0061372375488281256,42.14101735973232
27881,10.00923568725586,-9.13310760498047,-0.7691006469726563,45.71929997874555
27948,12.38030502319336,-6.101611633300782,0.3523672485351563,57.36589302162074
28015,10.546767883300781,-3.06322998046875,-1.2731025695800782,49.2129621532683
28081,10.562185821533204,-4.178410949707032,-0.43349853515625003,57.2911941327197
28148,12.936697998046876,-4.33738037109375,1.127904510498047,56.708662281645736
28215,16.07731704711914,-2.4011567687988284,3.0359866333007814,57.03004046739281
28281,17.32033218383789,0.6325845336914063,1.9640657043457033,53.6433144762608
28348,20.00275405883789,-2.5001010131835937,0.6707551574707031,54.311610460962044
28415,15.291151885986329,-6.801705780029297,2.276466064453125,64.28826683018657
28481,10.938054199218751,-6.441554718017579,0.9827064514160156,59.423652683903896
28548,8.32598602294922,-7.67648666381836,0.5830375671386719,60.102808710137225
28615,8.054151306152344,-7.695796508789063,-1.5193405151367188,52.215759270064524
28681,5.742209014892579,-9.089398498535157,-6.114933929443359,52.95907804992897
28748,5.500162353515625,-10.56967025756836,0.2219883728027344,50.59449812507961
28815,7.745044097900391,-9.858499145507812,-0.6098318481445313,36.05843539058089
28881,11.998299407958985,-6.088289337158203,-0.1681004333496094,37.12228669619535
28948,9.663604431152343,-3.348087615966797,-2.108814697265625,41.1257148986498
29015,8.456215209960938,-4.062102813720704,-1.1852352905273438,46.24776971378992
29081,12.20636672973633,-5.22353759765625,2.175875244140625,42.605006977390886
29148,18.814974060058596,-2.984344024658203,2.5628205871582033,52.091610007173344
29215,18.67965545654297,0.841699676513672,2.404449920654297,61.1277252110537
29281,16.12416961669922,-2.1778211975097657,-0.3909869384765625,60.415695254476404
29348,17.558187561035158,-5.732329559326172,0.02155517578125,61.17259360681582
29415,13.62047607421875,-6.4533801269531255,0.2724334716796875,62.91652292729283
29481,10.135872344970704,-6.986721038818359,0.30985565185546876,61.59080294032252
29548,7.509284362792969,-7.441924438476563,-0.3860472106933594,58.32312797247511
29615,7.526498565673829,-7.8427908325195315,0.006586303710937501,57.80175405023158
29681,4.0671922302246095,-9.129215698242188,-0.9427395629882813,51.11974549069545
29748,5.405110015869141,-8.969946899414063,1.8755996704101563,36.272634165682206
29815,11.222462768554688,-7.747139739990235,-0.6315367126464844,35.81152891966289
29881,12.973970489501953,-4.786596221923828,-1.2460089111328125,39.93436230497612
29953,11.067085876464844,-2.348316650390625,-1.047970733642578,40.580462303952814
30015,12.135414276123047,-1.834435272216797,1.1220666503906251,39.92553517832136
30081,16.006065216064453,0.6595285034179688,1.5558645629882812,53.55386380647984
30148,19.31523376464844,4.151466979980469,3.3295262145996096,54.36423463561702
30215,16.863182830810548,3.4744248962402344,2.2185365295410158,54.9636912961916
30281,20.025357055664063,-3.589984588623047,3.1617251586914064,53.26866113839291
30348,20.463645629882812,-5.910309448242188,7.131619720458985,71.24706717959418
30414,14.557527465820312,-6.361321563720703,4.2203237915039065,58.5079934446789
30481,11.73320068359375,-6.6753684997558596,3.726201324462891,55.98713924158069
30548,8.891060943603517,-4.961133270263672,2.8554620361328125,51.83161612556319
30615,7.942483520507813,-0.27198440551757813,-0.7689509582519531,39.58563883221967
30681,3.5006204223632813,2.8050169372558593,1.606908416748047,39.97648454896206
30748,3.7908668518066406,6.980733489990235,5.933511199951172,42.20265033587232
30815,2.9954209899902344,5.618416442871094,6.667584686279297,44.82058517091312
30881,3.113226013183594,5.100343780517578,5.821544036865235,37.84759894664005
30948,0.010627899169921875,4.1288639831542975,7.010970611572266,36.95569227036186
31015,-1.9155665588378907,3.845952301025391,7.121291198730469,32.750808984568586
31081,-2.867736511230469,4.948409729003907,11.140433349609376,38.13247300897605
31148,1.518292694091797,9.77841567993164,10.491832122802736,36.231458746379396
31215,-0.35161880493164066,6.476731567382813,12.767998809814454,36.39386869017684
31281,2.3056553649902347,7.472161560058594,7.433541870117188,40.12584163914151
31348,0.2568658447265625,4.377347259521485,2.9353958129882813,32.18797998111738
31415,-1.4934443664550783,3.409310302734375,10.324629821777345,31.550322287909704
31481,-4.695435791015625,8.010891265869141,2.917283477783203,36.19406410886778
31548,4.582869873046875,5.533992004394531,8.816965026855469,52.3987981927293
31615,3.210673370361328,6.8548452758789065,9.123976593017579,51.29731773178847
31681,2.1149519348144534,3.6504588317871094,12.089310150146485,56.49871066256422
31748,-0.7726931762695313,3.576961669921875,10.701695709228517,52.52513226416275
31815,2.6599685668945314,6.019881591796875,8.079448699951172,36.11723308007342
31881,-0.9385482788085938,3.620820465087891,4.648134155273437,49.87550080080598
31948,-2.3875350952148438,3.212918701171875,7.150480499267578,55.02983970850205
32015,-4.266876983642578,5.552703094482422,1.4718891906738283,60.80664720467266
32081,-8.405620422363281,1.9642153930664064,4.71579345703125,57.793727936407194
32148,-6.827452239990235,0.17887802124023439,2.961142272949219,53.55604750958804
32215,-12.674593048095703,-0.580642547607422,5.51093994140625,40.78456818053293
32281,-13.142070922851563,-4.662204895019531,8.243806915283203,49.84194151476166
32348,-13.310321044921876,-3.707340545654297,5.054539031982422,47.6110806696504
32415,-11.706256713867187,-1.9868183898925782,5.017116851806641,42.53846646198501
32481,-12.41383529663086,-3.9302270507812502,5.26185791015625,46.63305075447098
32548,-11.566597137451172,-0.43230102539062504,9.042695617675781,44.012454079054876
32615,-14.194232940673828,4.0794667053222655,7.8077636718750005,52.733069078078344
32681,-16.232693939208986,3.7955072021484377,6.550677795410157,58.10071140220798
32748,-16.175213470458985,-3.040477294921875,7.151228942871094,55.95249243073827
32815,-14.800023193359376,-4.306095428466797,5.007985839843751,53.74284484436871
32881,-11.25374771118164,-3.5772610473632813,3.1058912658691407,57.04684902285051
32948,-8.729995880126953,-4.774471435546875,1.3814772033691407,57.35913330011733
33015,-7.323520660400391,-4.3752516174316405,-0.48529083251953126,54.45738051195743
33081,-10.499765625,-3.157384185791016,-1.244062957763672,53.39200929230935
33148,-9.303004302978517,-3.8014947509765626,-1.1473640441894533,52.81537856187789
33215,-6.696175231933594,-6.517147521972657,0.07529342651367188,51.32176409743424
33281,-13.15195037841797,-4.144431610107422,-0.15492782592773438,43.13149831468494
33348,-14.264886016845704,-3.308569793701172,0.42870849609375,48.524128923957434
33415,-14.540013885498048,-4.7647416687011726,2.931653594970703,53.03435825488091
33481,-15.086976470947267,-4.429738311767578,6.9024462890625005,49.89414218299329
33548,-14.578034820556642,2.0610639953613283,8.621621246337892,58.6977424882327
33615,-13.922098846435548,4.593497772216797,6.68973861694336,60.96029413933369
33681,-15.4095556640625,2.1311183166503906,6.040388946533203,58.86796315826815
33748,-18.385517120361328,-1.5835569763183595,4.708758087158204,60.333175816362626
33815,-18.462457122802736,-4.7309120178222654,2.7638525390625,60.12971287161882
33881,-13.182337188720703,-6.799759826660156,2.213147735595703,57.569539167914705
33948,-9.165590057373047,-5.356610870361329,0.14594650268554688,55.281373551053264
34015,-8.109685821533203,-3.2585737609863283,-1.2530442810058595,49.732110084114524
34081,-9.165440368652344,-3.2662078857421877,-0.8219407653808594,45.90083553256622
34148,-7.235952758789063,-5.068609771728516,-1.0319540405273437,50.98792502424288
34215,-8.644673309326173,-5.200635223388672,1.8779946899414064,57.94960424751604
34281,-12.053983612060547,-2.625989227294922,-1.0346484375,49.02975969725023
34348,-11.896211700439453,-2.7690916442871094,0.21704864501953125,52.6021930926298
34415,-14.43523178100586,-5.594166870117188,0.959055633544922,58.55500983970402
34481,-18.50781280517578,-4.39530990600586,5.093607788085937,61.950587417873244
34548,-19.192339324951174,4.50503173828125,6.974446563720703,53.08432077637406
34615,-14.318624267578127,5.046006774902344,6.592291259765625,63.20485900407422
34681,-14.43762680053711,1.8079403686523439,4.371210021972656,61.854140856757205
34748,-21.025726776123047,-1.5578105163574218,3.022215270996094,55.2663646060016
34815,-17.782121887207033,-5.381010131835938,3.1847772216796875,60.60241024508211
34881,-11.82750457763672,-8.105494537353517,2.258802795410156,64.55333128626422
34950,-8.311915283203126,-5.907016296386719,-0.2517764282226563,51.80036941825528
35015,-8.998238067626954,-4.314028930664063,-1.199755096435547,46.582308746636905
35081,-6.308331756591797,-5.404960327148438,1.0057585144042969,48.9231726072248
35148,-4.84512451171875,-5.804629211425781,0.1646575927734375,48.454949278480505
35215,-12.90092239379883,-5.302722930908203,1.8988014221191407,46.13693861814612
35281,-15.054344329833985,-1.5694862365722657,0.25192611694335937,46.57877747023221
35348,-11.302695922851562,0.7430548095703126,-1.9881655883789064,35.44811911757776
35415,-12.216844940185547,-3.5819013977050784,-0.8602610778808594,45.593679094633316
35481,-14.834152221679688,-3.65240478515625,2.8093579101562502,52.239473932654754
35548,-19.63481918334961,4.768334197998047,7.485034790039063,46.04042357370142
35615,-17.125587158203125,4.133204956054688,4.614903259277344,43.12959735882106
35681,-14.345568237304688,-1.6343014526367188,4.193080444335938,46.75127328489335
35748,-14.236744537353516,-2.6590704345703124,2.2899380493164063,47.52593855789081
35815,-12.70363265991211,-3.1692095947265626,2.4580384826660158,56.20988185303303
35881,-10.446476440429688,-5.438490600585938,2.3041584777832034,48.62894303500282
35948,-9.204209747314454,-4.797822875976562,-1.2419673156738282,46.47099216627034
36015,-10.123148803710938,-4.923860778808594,-2.6967919921875003,39.566485792052035
36081,-7.2741233825683596,-7.068600769042969,1.482217712402344,44.88903085267769
36148,-11.391311645507812,-5.135969696044922,1.4151571655273438,48.401500237576734
36215,-11.640992431640626,-1.7251625061035156,-1.374591522216797,41.18760590442381
36281,-8.363557891845703,-0.7587721252441406,-0.7301815795898438,49.68212013738054
36348,-9.704469451904297,-3.393892364501953,-0.9196875,36.34275694625944
36415,-15.268548889160156,-4.860542449951172,1.889520721435547,37.16420733846555
36481,-19.98688705444336,3.484603729248047,8.067623291015625,37.7952434332479
36548,-17.858014068603516,7.897427215576172,7.622449035644531,54.711141422212464
36615,-14.92052261352539,0.09325607299804688,3.868854675292969,56.73904272262987
36681,-13.979878692626954,-2.209255828857422,3.870052185058594,69.87743868024916
36748,-12.970827026367187,-2.0808229064941406,3.184926910400391,57.81891025625576
36815,-11.973900146484375,-4.395459594726563,2.286195831298828,58.39463591600933
36881,-11.016491088867188,-4.6367578125,0.023800506591796878,57.81697943485775
36948,-10.922486572265626,-3.8061351013183597,-2.223625946044922,48.92083466791766
37015,-6.784641265869141,-5.3949311828613284,0.5014572143554688,44.479638302267446
37081,-6.446793823242188,-5.3880455017089846,1.5126045227050782,47.308468499705604
37148,-10.654843139648438,-2.629581756591797,-0.12783416748046875,43.18730966888098
37215,-10.61083465576172,-0.6245013427734375,-2.138602752685547,38.79382637174343
37281,-9.223519592285157,-0.6602769470214844,-1.0276130676269533,41.85031920432769
37348,-11.183394012451172,-4.165537719726562,0.5493576049804688,40.827135801713325
37415,-14.390325164794923,-4.125870208740235,3.9847137451171877,45.60444673193188
37481,-19.495159606933594,5.317841491699219,5.3352053833007815,51.751376603293934
37548,-18.591788177490237,5.115312652587891,2.802023162841797,61.21886673033778
37615,-15.59397216796875,-0.8978329467773438,3.7940103149414064,54.375777616641294
37681,-13.836626586914063,-2.0182530212402345,3.7019517517089846,61.71472236567121
37748,-11.570189666748048,-2.562521209716797,2.925516357421875,65.40026990378232
37815,-9.284891967773438,-4.82162338256836,2.1162991333007812,62.58549409405357
37881,-8.087382202148438,-4.3507026672363285,-0.2881507873535156,56.90243938416003
37948,-10.393786010742188,-4.635410614013672,-1.8660195922851563,49.68665033869834
38015,-8.566835174560547,-7.408843231201172,-0.5469625854492188,50.96513755719759
38081,-11.793974304199219,-5.644013214111329,1.8766474914550781,52.631648342655296
38148,-12.147089996337892,-1.167721710205078,-2.1749771118164065,53.76376186315962
38215,-8.424930267333984,-1.1490106201171875,0.4794529724121094,59.46369230189422
38281,-8.810079345703125,-3.0672715759277347,1.5512242126464844,48.60104323232677
38348,-12.062815246582032,-3.281027069091797,2.2269190979003906,62.93644257458692
38415,-16.645685119628908,-0.11511062622070313,4.452041931152344,58.484225260432964
38481,-17.375567321777346,5.656886444091797,4.337679748535156,58.27009150532392
38548,-18.02581512451172,2.750380554199219,3.8405635070800783,55.286172165257305
38615,-16.388220520019534,-1.9818786621093751,4.218527526855469,52.48390185172511
38681,-14.949113159179689,-2.7463389587402345,2.9165350341796876,60.949167243917934
38748,-11.983480224609375,-5.204976196289063,2.621049499511719,67.49809876660285
38815,-9.297016754150391,-5.186564483642578,1.0520123291015626,52.00179941968094
38881,-9.589209136962891,-3.980223083496094,0.21570144653320314,53.37207597101714
38948,-6.259084167480469,-5.579197998046875,-0.7225474548339844,55.65169884841338
39015,-5.261408843994141,-5.635780334472656,1.167422332763672,62.753530540258865
39081,-12.085567932128907,-5.912255401611328,1.4594650268554688,54.398850808173016
39148,-13.632301483154297,-3.74341552734375,0.26539810180664064,46.15518697710208
39215,-11.378737792968751,-0.7815248107910157,0.2824626159667969,45.47220719013061
39281,-12.03542221069336,-3.6711158752441406,0.8400531005859375,58.05900306883653
39348,-15.778089294433595,-3.9914497375488285,3.977977752685547,55.62962232715515
39415,-18.735040283203126,5.3175421142578125,10.357860717773438,61.77307894105599
39481,-15.946788482666017,3.2156130981445314,3.128793640136719,63.846646395803674
39548,-17.89259216308594,-1.294508056640625,2.4014561462402346,57.89300727599127
39614,-15.315850524902345,-3.6944673156738284,3.4555641174316407,65.84578272171912
39681,-12.413086853027345,-4.778213653564453,4.1483235168457036,57.51996944358044
39748,-9.617200927734375,-5.138215026855469,1.7006135559082032,58.488852779632836
39815,-7.558531951904297,-4.34740951538086,0.3998185729980469,57.06892659439097
39881,-8.830736389160156,-4.16972900390625,-0.781824188232422,51.585916426068536
39952,-8.462951202392578,-6.1945683288574225,2.518363037109375,42.68343913951065
40015,-7.4256083679199225,-6.470145263671875,3.5581008911132814,47.57494720869782
40081,-11.540251922607423,-3.6181260681152345,1.962568817138672,35.77606677362536
40148,-11.799512786865234,0.08547225952148438,-1.503922576904297,40.11824095594308
40215,-9.355545043945312,0.15911911010742188,-1.2614268493652345,35.30071568837378
40281,-11.008258209228517,-3.348087615966797,-0.14639556884765625,58.41494618888309
40348,-13.708642730712892,-3.9736367797851564,2.9918284606933594,57.402979353078734
40415,-15.60250442504883,-0.9419911193847657,6.842421112060547,50.34319568640984
40481,-16.47908157348633,4.754862213134766,2.993624725341797,55.58265652311828
40548,-14.066698150634766,0.6256988525390625,4.31822021484375,59.21251963709584
40615,-14.854958953857423,-1.763782196044922,3.3641043090820313,53.96237716800721
40681,-13.130844268798828,-3.4670901489257813,2.760110321044922,57.63379319902167
40748,-10.541079711914064,-4.756359100341797,2.5861720275878906,62.44886684782489
40815,-7.407645721435547,-4.692442016601563,0.9372010803222657,54.87821109671491
40881,-7.440726928710938,-3.4486784362792973,-0.8463400268554688,55.89775402025886
40948,-9.52020263671875,-3.955973510742188,-0.5119354248046876,47.33534294525008
41015,-10.198142852783203,-5.098098449707032,2.721939697265625,40.41787318971751
41081,-13.10120590209961,-3.6164794921875,0.028291168212890627,40.31206419827462
41148,-12.292587432861328,-0.9205856323242188,-3.261717224121094,31.19585774961784
41215,-7.5064402770996095,-1.344653778076172,0.8328680419921876,43.60839456683622
41281,-6.262527008056641,-2.357896728515625,1.0975177001953125,49.25827574624742
41348,-9.363777923583985,-3.2742910766601563,1.635648651123047,49.775681457588014
41415,-12.882810058593751,-1.709894256591797,1.8562898254394533,49.99343719715918
41481,-16.40378814697266,3.340752868652344,1.748214569091797,57.83817140354909
41548,-18.466199340820314,4.295018463134766,7.438182220458985,59.79570225449082
41615,-14.610367584228516,-2.5602758789062503,4.9002099609375005,67.22011069603526
41681,-14.418167266845703,-4.202510833740234,3.891607360839844,55.416391425029005
41748,-14.83520004272461,-2.2170396423339844,1.6422349548339845,63.796278096531964
41815,-12.92681854248047,-5.327122192382813,2.1031265258789062,57.63861323006058
41881,-7.335495758056641,-5.386997680664063,-0.7896080017089844,53.32264707370018
41948,-7.582631835937501,-4.705614624023438,-2.265538787841797,54.18326154795906
42015,-7.955656127929688,-5.10184066772461,-0.5731581115722657,50.017034322576414
42081,-10.581795043945313,-5.941145324707032,0.2989283752441406,48.87831019635978
42148,-13.7234619140625,-2.874322814941406,-0.7996371459960938,40.93106356977906
42215,-10.919941864013673,-0.3279679870605469,-0.6316864013671876,50.47932627032442
42281,-10.650951232910156,-1.8983523559570314,0.439486083984375,56.53158464876705
42348,-12.055929565429688,-3.659140777587891,2.089355163574219,55.09189076473368
42415,-16.24586654663086,1.3404624938964844,5.471721496582031,54.620234446356335
42481,-18.099761352539062,6.610852661132813,3.0804441833496097,49.88621376650882
42548,-16.246165924072265,2.515818328857422,2.2742207336425784,47.10963118995275
42615,-14.919923858642578,-2.205363922119141,3.456611938476563,54.98729480316279
42681,-13.771961059570312,-2.464325408935547,3.2564781188964846,51.796925119465385
42748,-11.554322662353517,-4.100872192382813,2.788700866699219,57.178393624691225
42815,-9.105564880371094,-3.9875578308105473,0.23441253662109376,58.65871162440882
42881,-9.200317840576172,-4.093238067626953,-0.9211843872070313,52.50746820098385
42948,-8.269852752685548,-4.535867614746094,-0.9195378112792969,54.98125766989065
43014,-9.197773132324219,-4.068240051269531,-0.9451345825195313,55.757061478173426
43081,-9.12068344116211,-5.223238220214844,0.8737330627441406,46.88544396813462
43148,-10.511441345214845,-3.8481976318359377,1.2699591064453126,54.41567891493615
43215,-12.290791168212891,-3.569477233886719,1.0099497985839845,43.88616220951455
43281,-17.03996520996094,-2.2574555969238284,0.8705895996093751,54.8991350161552
43348,-16.174165649414064,2.511926422119141,3.7315901184082034,47.55280150964325
43415,-16.554075622558596,6.163582763671875,1.8336868286132812,56.869855303138166
43481,-16.958384857177734,3.860322418212891,3.151546325683594,54.609354098585044
43548,-17.174984436035157,-1.0582992553710937,3.3184492492675783,53.10886525093116
43615,-18.265167388916016,-3.8034407043457032,2.889441375732422,54.89446581770828
43681,-12.906909942626953,-4.387376403808594,2.109712829589844,56.37939801558909
43748,-11.18998031616211,-4.8331494140625,0.23845413208007812,55.70769367752582
43815,-9.884395294189453,-5.201832733154297,1.9443067932128908,56.24554347165364
43881,-6.578220520019531,-5.147645416259766,-2.135159912109375,48.19728142614241
43948,-6.362369384765626,-5.1626142883300785,1.3121713256835938,52.44420624611354
44015,-8.490643615722657,-5.5324951171875005,-2.933599548339844,51.578192844172975
44081,-13.414654083251953,-4.29427001953125,0.14190490722656252,48.7030439244771
44148,-12.731025695800781,-4.16972900390625,1.04183349609375,45.658360170326816
44215,-15.637082519531251,-5.210364990234376,1.7524058532714846,53.34435655170516
44281,-20.976928253173828,-3.0162277221679688,2.528541870117188,54.14463588084007
44348,-18.760487365722657,5.308411102294922,5.077740783691406,56.06769261900256
44415,-14.251114654541016,5.28146713256836,4.57209228515625,48.25198848942443
44481,-15.231725463867189,3.27638671875,1.6790583801269532,59.849303675566716
44548,-20.406913604736328,-0.22947280883789065,0.41044647216796876,60.12887397577131
44615,-18.315013732910156,-4.9829878234863285,1.9161653137207033,55.99151357259189
44681,-13.313464508056642,-7.052584075927735,0.9063652038574219,59.59329553696872
44748,-10.573262786865236,-5.839057617187501,-0.5709127807617188,56.38441332160735
44815,-8.777896270751954,-4.334685974121094,-1.3007949829101564,57.533884636303895
44881,-4.468956756591797,-4.4282414245605475,-0.11121871948242187,43.66908348521373
44953,-5.761069793701172,-4.12856460571289,-0.1423539733886719,51.737513578599234
45015,-10.259515228271486,-6.20070556640625,-0.50055908203125,53.650722110407116
45081,-14.222973175048828,-2.6804759216308596,0.4101470947265625,52.706648639795155
45148,-12.007729797363282,-1.4865586853027344,-0.4613406372070313,58.98986118554906
45215,-15.027400360107423,-3.116818542480469,0.5631289672851563,56.92725335041517
45281,-18.895057525634765,3.2653097534179687,3.144211578369141,57.668224078029695
45348,-17.441729736328124,7.13955322265625,3.406466217041016,55.94734988590292
45415,-16.236136779785156,4.921615447998047,1.0719209289550782,57.983336121619864
45481,-16.132552185058593,0.07439529418945313,3.5176849365234375,58.949177860781674
45548,-18.022821350097658,-3.25004150390625,4.5566743469238284,56.962952161884175
45615,-16.36696472167969,-4.3593846130371094,4.082610168457031,47.650349017956955
45681,-11.204649810791016,-6.622827758789063,1.281036071777344,57.12767517481338
45748,-5.959557037353516,-4.448150024414063,-0.36284545898437504,55.906066861256164
45815,-2.9563522338867188,-4.874613189697266,-2.0567230224609374,54.65917953211935
45881,-6.222560119628906,-3.909719696044922,1.0620414733886718,49.563365429210336
45948,-11.385773162841797,-2.918331298828125,0.415535888671875,51.88672610354793
46015,-15.214361572265625,-3.2323782348632815,1.330433349609375,55.6391042120171
46081,-14.5473486328125,-0.8113128662109376,2.373314666748047,54.92367810521999
46148,-10.420280914306641,-0.22602996826171876,1.208137664794922,47.76824628084853
46215,-11.345955963134767,-1.8982026672363281,2.285896453857422,49.42474358951938
46281,-13.723761291503907,1.0145901489257814,2.9951216125488282,51.01932571525042
46348,-14.912589111328126,4.676874389648438,3.604354705810547,54.253140830523556
46415,-16.604071655273437,5.397026824951173,4.06958724975586,49.980674390331245
46481,-19.532132720947267,0.12124786376953126,3.253634033203125,52.87922599201895
46548,-15.004048919677736,-3.5753150939941407,4.475093994140625,59.27696218298954
46615,-12.483889617919923,-4.302502899169922,3.066972198486328,55.8504654226097
46681,-9.395062866210939,-4.967270507812501,0.48259643554687504,52.467348672444494
46748,-7.71480697631836,-4.247567138671875,-1.0385403442382812,46.085902102857176
46815,-9.736652526855469,-3.7281472778320315,-1.1810440063476564,52.57476977055687
46881,-8.758436737060547,-4.457430725097656,1.1067984008789062,51.78536677478185
46948,-8.225844268798829,-6.090384979248047,1.135089569091797,36.451273992583914
47015,-11.539503479003907,-3.4982254028320314,-0.11511062622070313,44.921595020567146
47081,-11.591595153808594,0.08247848510742188,0.8987310791015626,38.47757688392331
47148,-13.16632049560547,1.91841064453125,2.063009948730469,44.87746245072441
47215,-15.652201080322266,5.779481506347657,10.063572692871094,36.08205007704326
47281,-10.92937225341797,7.164251861572266,16.63775161743164,51.91095944006413
47348,-16.068485412597656,5.475314025878906,22.788910217285157,53.84575612819357
47415,-12.615765380859376,-2.0448976135253907,12.647200012207032,62.45214234602696
47481,-6.5238835144042975,-3.1606773376464847,7.758965148925782,60.79523841611533
47548,-5.404660949707032,-1.7055532836914062,3.8718484497070316,52.116490652073644
47615,-4.697232055664062,-0.3406915283203125,2.4007077026367187,46.06692999314062
47681,-4.911885681152344,0.3800596618652344,2.8125013732910156,40.352696000994364
47748,-3.357368316650391,3.1138247680664066,5.981860656738282,39.39668983522326
47815,-1.1343411254882814,7.2335577392578125,6.16522933959961,59.404362924242164
47881,-2.2435345458984375,7.7424993896484375,8.65844467163086,46.13461251252707
47948,-2.600841522216797,7.533683624267579,7.881260833740234,49.96025445560402
48014,-1.5139517211914064,6.465055847167969,6.549180908203125,64.1784338318318
48081,-0.9262738037109376,5.862708435058594,5.3509226989746095,43.98113691730502
48148,0.04086502075195313,6.334676971435547,4.808301086425781,43.68751619544555
48215,-0.012124786376953125,8.50276840209961,6.7774562072753906,52.814833450870125
48281,0.269439697265625,8.43091781616211,8.720565490722656,40.65467672465651
48348,-1.3593232727050781,8.525072021484375,8.913663940429688,67.35604647675343
48415,-0.7936495971679688,6.246809692382813,8.360863494873048,64.90315185222094
48481,-2.9235704040527346,6.069727935791016,7.070247344970704,41.56397697282503
48548,-1.2519964599609377,5.419180755615234,5.499862976074219,53.659875105494194
48615,-2.135010223388672,5.711822204589844,4.4177632141113286,56.41902244646569
48681,-3.593277740478516,6.142027587890626,5.022206268310547,44.30703778718752
48748,-4.5090733337402344,7.075486450195313,4.451443176269532,48.12793073823323
48815,-5.393733673095704,9.880653076171875,7.91359359741211,45.78031460187958
48881,-5.446424102783204,9.260941772460939,7.1931417846679695,49.541218553249486
48948,-3.6447706604003907,6.585854644775391,6.566395111083985,41.198495032115176
49015,-2.438878326416016,5.769003295898438,5.248685302734375,57.13068644169975
49081,-1.8217117309570314,5.524561614990235,3.610342254638672,53.052223519236954
49148,-2.009122009277344,6.076912994384766,4.3893223571777344,50.14012024217848
49215,-2.495760040283203,7.595505065917969,6.607709197998047,56.40800332513259
49281,-3.124452667236328,9.880503387451173,7.121740264892578,56.19202934392714
49348,-2.442021789550781,8.115074615478516,7.839647369384766,51.63298561728656
49415,-1.9467018127441407,6.185287628173828,7.448361053466797,42.68577971882843
49481,-2.5258474731445313,6.287225646972656,5.68817138671875,46.18706887211025
49548,-2.9800030517578127,6.3276416015625,3.7980519104003907,46.419002635162116
49615,-2.608924713134766,5.878575439453125,4.703818359375,54.91774777550312
49681,-4.682562561035157,6.9148704528808596,4.400998077392578,52.310003805729934
49748,-5.097050628662109,6.1540026855468755,2.0880079650878907,55.296125555521236
49815,-6.8741551208496094,2.887794799804688,6.2825852966308595,58.812659371915515
49881,-7.533084869384766,3.3287777709960937,10.031539306640626,50.27936426215895
49951,-8.443341979980469,7.469766540527345,6.542444915771485,47.35487118351679
50015,-5.958359527587891,6.344706115722657,6.415508880615235,45.78776695691345
50081,-1.696721649169922,3.0781988525390624,7.124584350585938,49.94840454727661
50148,1.3213023376464845,3.182831268310547,8.834328918457032,38.02363174309547
50215,3.1139744567871097,2.6071284484863284,12.74958709716797,45.13750150081823
50281,-0.7291337585449219,1.6685801696777345,21.469254455566407,55.77718079536485
50348,-4.4563829040527345,2.1210891723632814,13.819113006591797,54.231770369033896
50415,-5.860313415527344,3.3654515075683595,8.754095764160157,47.80526126607946
50481,-6.145919494628907,3.377576293945313,8.78627883911133,46.56337812767546
50548,-5.1097741699218755,1.0744656372070314,4.8084507751464844,51.17228195591491
50615,-4.690945129394532,0.18142272949218752,1.5634986877441408,41.11262513659065
50681,-6.720275115966797,-0.06271957397460938,-0.085023193359375,43.34473856911537
50748,-9.090745697021484,-2.4662713623046875,3.823199615478516,45.91876757358062
50815,-11.158096618652344,-4.276606750488281,7.245682525634766,46.98239776042761
50881,-13.332175598144532,-4.1746687316894535,7.521409149169922,50.14675916142065
50948,-12.16759735107422,-3.1569351196289066,4.9564929199218755,45.49040065083469
51015,-9.29941177368164,-3.386856994628906,4.714146881103516,43.645322349279596
51081,-10.630144500732422,-4.5146118164062505,6.541247406005859,42.3149507644823
51148,-12.363240509033204,-1.600920867919922,10.869796142578126,40.97361444565494
51215,-9.463919677734376,1.3227992248535156,13.484558715820313,39.06281155772153
51281,-10.678793334960938,0.9464817810058594,11.512559509277345,40.1573687447745
51348,-11.102262725830078,-2.7631040954589845,10.866952056884767,59.66748382098598
51415,-11.192674713134766,-5.7911572265625,11.092383270263673,60.10856040279692
51481,-11.010952606201172,-4.647834777832031,7.408394165039063,64.96536115208636
51548,-7.984546051025391,-4.905149688720703,5.4989648437500005,60.52803559557817
51615,-7.081773376464844,-3.9306761169433595,3.4250276184082034,53.45793117249714
51681,-8.106093292236329,-3.8984930419921877,4.28753402709961,45.8086797790903
51748,-6.684499511718751,-3.2298335266113285,3.149300994873047,38.46646328577117
51815,-6.464906158447266,-2.648292846679688,3.021167449951172,30.330214446829107
51881,-10.50695068359375,-0.9497749328613282,7.39866439819336,42.63754388840006
51948,-8.902287597656251,0.9229806518554688,5.832920379638672,40.990933597731
52015,-6.591991882324219,0.15432907104492188,3.5895355224609378,27.92391689498254
52081,-8.30727493286133,-1.1285032653808593,8.651109924316406,37.88592555920359
52148,-8.472680969238281,0.6643185424804687,16.257392578125,47.135745377720696
52215,-6.357279968261719,1.9437080383300782,15.948734436035156,55.82440648638487
52281,-5.046605529785157,2.2275178527832034,14.187796325683594,62.40900285877059
52348,-4.8913783264160156,-0.21899459838867188,14.363530883789064,55.36073377947125
52415,-5.615722045898438,-1.4663507080078126,12.117601318359375,53.02274635621812
52481,-5.573809204101563,-1.845063171386719,8.383915557861329,54.521791179680676
52548,-5.21201156616211,-1.3997392272949218,4.67313217163086,52.04578464109521
52615,-6.060596923828125,-1.2747491455078126,4.876259765625,50.283841567217145
52681,-7.366930389404297,-1.3645623779296876,3.0094917297363284,39.22673567858554
52748,-7.591313781738282,-1.191372528076172,7.656578063964844,60.48302325234929
52815,-8.53779556274414,-1.1449690246582032,6.602320404052735,58.446753278728146
52881,-9.762398986816407,1.1237132263183593,6.967710571289063,58.958097022146454
52948,-5.895939331054688,0.44562332153320316,6.101012878417969,63.035720670840774
53015,-3.982468414306641,-0.326920166015625,5.433850250244141,63.80009790930612
53081,-4.680466918945313,0.12064910888671876,9.915231170654298,53.15090375389754
53148,-3.580105133056641,2.233056335449219,12.686568145751954,47.67207829834383
53215,-2.1032762145996093,3.7154237365722658,14.696887664794923,54.910085108777444
53281,-4.6517266845703125,2.913391571044922,16.992813262939453,59.014141813199046
53348,-8.816815338134766,0.25192611694335937,17.17079315185547,58.97309225360062
53415,-7.323670349121094,-0.8222401428222657,10.473570098876953,62.82059000186279
53481,-5.328469390869141,-0.7921527099609376,4.2751098632812505,66.30805455502879
53548,-4.233646087646485,-0.6487509155273438,1.9052380371093751,47.499371882627585
53615,-6.3215043640136726,-0.11945159912109375,1.4253359985351564,53.11791992555734
53681,-7.739954681396485,-0.700543212890625,7.087012481689453,39.20957705955449
53748,-7.917335815429688,0.33664993286132816,5.6574851989746096,37.57396028793024
53815,-9.308842163085938,0.7997868347167969,13.372142486572267,48.85751231305942
53881,-7.941286010742188,2.412084045410156,10.769504699707031,41.05033050393594
53948,-3.855532379150391,2.0680993652343753,5.450765075683594,41.73506770208104
54015,-2.827320556640625,1.2865745544433593,13.777948608398438,47.50076199567835
54081,-0.18456619262695315,3.5691778564453127,11.000624084472657,58.455903748694325
54148,1.1219169616699218,4.277055816650391,7.859406280517579,55.40684775041895
54215,3.3721875000000003,4.031566314697266,9.62169158935547,57.024684493882454
54281,-1.0494676208496094,2.369572448730469,18.106197967529297,70.41316519020044
54348,-4.5339216613769535,2.3153851318359377,14.65841766357422,63.98215958557149
54415,-3.8907092285156253,1.7321978759765626,9.57094711303711,60.68375870409464
54481,-2.3572979736328126,1.302591247558594,4.302502899169922,62.54295208833508
54548,-3.2323782348632815,2.4782464599609377,4.324656829833985,62.39330016339598
54615,-3.2452514648437503,2.4875271606445315,3.467688903808594,59.48445243223041
54681,-2.4803421020507814,3.381468200683594,5.39118896484375,61.99047226958456
54748,-5.813760223388672,5.444478149414063,11.262878723144532,59.3559089220897
54815,-7.194189605712891,6.427633666992188,10.88730972290039,52.45206579771855
54881,-3.81287109375,4.824766845703126,9.032217407226563,56.61032336401721
54953,-2.548600158691406,5.093009033203125,5.0287925720214846,51.470483845181995
55015,-0.7608677673339844,4.672084350585938,9.48472640991211,46.90931099361164
55081,1.3383668518066407,5.485941925048828,9.097631378173828,52.34750059652484
55148,2.8575576782226566,5.4055590820312505,9.435628509521484,53.167145120715276
55215,1.3022918701171875,5.059329071044922,13.491294708251953,61.387020654088566
55281,1.0786569213867188,4.30190414428711,12.462484130859375,58.20583680633036
55348,-0.83586181640625,4.937632141113282,13.46569793701172,58.83396235868148
55415,-1.9437080383300782,5.321134643554688,8.67625762939453,50.97170511555447
55481,-3.407514038085938,5.502257995605469,4.283642120361328,56.78909705045905
55548,-3.763324127197266,4.128265228271484,7.45090576171875,56.308507756232046
55615,-4.288132781982422,5.27188705444336,6.713688812255859,56.82359010766902
55681,0.8385562133789063,6.329437866210938,6.220015411376953,54.47889511394454
55748,-0.6617738342285157,9.17966079711914,3.2936009216308597,49.99469837267013
55815,-1.6613951110839844,7.829618225097657,5.799390106201172,48.07521498434998
55881,-1.0832972717285156,5.809119873046876,5.091362457275391,47.68119894184798
55948,-0.7914042663574219,5.628445587158203,4.878505096435547,46.04916917389083
56015,-1.4431489562988282,9.269474029541016,4.223616943359375,50.97090641944313
56081,-2.489473114013672,9.36737045288086,9.240584106445313,53.210326715887895
56148,-2.2074595642089845,8.779542846679687,7.438631286621094,54.18902588215654
56215,-3.200644226074219,8.046517181396485,6.206543426513672,53.96920827458884
56281,-2.067949676513672,5.729186096191406,6.274951171875,48.90650122758956
56348,-1.7787510681152345,6.043831787109375,5.476960601806641,55.12723075514258
56415,-2.0778291320800784,5.4672308349609375,4.397255859375,56.78783245203896
56481,-1.7110917663574219,5.714815979003906,5.111121368408203,60.67844973863774
56548,-2.6360183715820313,9.053173828125,4.642595672607422,52.775106560887686
56615,-1.7480648803710939,9.132059783935548,6.666237487792969,55.690671027398665
56681,-3.6540513610839844,9.706864471435548,7.2160441589355475,57.16325604175996
56748,-4.881349182128907,8.970096588134766,7.2811587524414065,57.86971352215996
56815,-1.8079403686523439,6.909930725097657,6.516698455810547,45.008811238504556
56881,-1.3311817932128907,6.429729309082032,3.128793640136719,58.66062156637163
56948,-1.033450927734375,5.236261138916016,4.243824920654297,52.58426548504325
57015,-0.8629554748535156,6.69931869506836,5.073549499511719,57.31015505046763
57081,-1.5521223449707031,8.07316177368164,3.617377624511719,58.91250806785426
57148,-0.5309458923339844,7.251520385742188,3.4018258666992187,60.96922520509028
57215,-0.5140310668945313,4.123624877929688,5.610033874511719,62.012618983841634
57281,-0.46792694091796877,2.083217926025391,6.528074798583985,65.23938866053568
57348,-2.907853088378906,4.876259765625,10.87668182373047,60.34102413267234
57415,-6.9305877685546875,10.53419403076172,8.153694305419922,59.28945030802573
57481,-7.485334167480469,9.214388580322266,3.2864158630371096,54.411073016950475
57548,-6.6012725830078125,4.8755113220214845,2.8765681457519534,54.54649764637555
57615,-5.858816528320313,-1.0216255187988281,1.4186000061035158,53.292412203126
57681,-8.59767105102539,-5.491480407714844,1.2317884826660157,59.35286535746922
57748,-15.86026840209961,-9.54939193725586,8.537496185302734,60.671270464690906
57815,-15.066768493652345,-6.8970574951171875,5.505850524902344,55.96616885810167
57881,-12.572954406738281,-2.7068211364746095,3.4230816650390627,52.891517627569684
57948,-9.72662338256836,-3.896397399902344,2.2529649353027343,59.22064433232859
58015,-11.225306854248048,-5.6767950439453125,4.768334197998047,58.491939152715545
58081,-12.68447250366211,-1.5816110229492188,10.121202850341797,61.67029777984438
58148,-15.437098388671876,2.398612060546875,12.002640380859376,59.49884527914517
58215,-16.412919158935548,-1.4554234313964844,8.03484146118164,64.76543838436154
58281,-17.94782730102539,-7.697892150878906,8.320597229003907,59.113339551082724
58348,-15.468533020019532,-8.956474914550782,4.540208587646484,57.24122610357963
58415,-11.161389770507814,-7.662715301513672,2.176623687744141,51.2325693625892
58481,-7.893235931396485,-6.212381286621094,1.1790980529785158,57.53772207709215
58548,-7.5926609802246094,-5.851930847167969,0.5355862426757813,55.857054447123105
58615,-7.403155059814454,-6.1804975891113285,0.7333250427246094,52.1139556075145
58681,-5.011728057861329,-4.968468017578125,0.3998185729980469,49.05288457575145
58748,-7.416926422119141,-5.024301910400391,3.0552964782714844,47.14212366993632
58815,-11.497740325927735,-2.333796844482422,4.126918029785156,51.28050141787555
58881,-9.028325500488283,-1.9236497497558596,3.5030154418945316,54.03635189790548
58948,-9.703571319580078,-4.597539367675782,0.9545649719238282,50.41321612973303
59015,-13.982722778320314,-5.250780944824219,8.574469299316407,46.73103885408021
59081,-12.821437683105469,-2.398462371826172,12.629536743164063,54.083078185237525
59148,-11.122171325683594,-0.13307327270507813,12.044253845214845,63.868888529239065
59215,-14.751673736572267,-0.7668553161621094,10.441836090087891,60.25569230065372
59281,-14.633120269775391,-3.4000296020507816,8.827443237304688,56.951654720752984
59348,-12.049043884277344,-5.144352264404297,5.433101806640625,50.210072708594225
59415,-10.266700286865236,-6.409970397949219,3.3281790161132814,56.72223507947952
59481,-8.630303192138673,-5.626649322509766,0.9223818969726563,52.941111500239764
59548,-7.885601806640626,-4.949756927490235,0.40745269775390625,50.061578619684504
59615,-9.04733596801758,-5.5324951171875005,1.7121395874023437,52.531416559634806
59681,-8.070766754150391,-5.731880493164063,1.3684542846679688,53.39872611985101
59748,-9.033115539550781,-4.483177185058594,1.4997312927246094,49.14528261477181
59815,-10.167456665039063,-2.5213568115234377,0.9181906127929688,43.40087013697425
59881,-8.530161437988282,-2.142045593261719,1.6185841369628906,54.65470593866631
59951,-9.428293762207032,-4.7611491394042975,1.847757568359375,58.786573477543755
60015,-12.61831008911133,-4.8210246276855475,6.1418778991699226,53.46266889535619
60081,-14.071338500976562,-1.7980609130859375,9.4986474609375,52.55289394004764
60148,-15.155084838867188,1.5176939392089845,8.915011138916016,60.76071082959669
60215,-15.058535614013673,0.6265969848632813,7.8393479919433595,54.58188972048818
60281,-13.49877914428711,-2.3846910095214846,6.0959234619140625,60.77378081102594
60348,-12.37356903076172,-3.4120046997070315,4.11224853515625,58.2498185859269
60415,-11.123817901611329,-4.408632202148437,2.5598268127441406,56.11543819167994
60481,-8.594527587890626,-4.572840728759766,0.9279203796386719,57.88739509987842
60548,-9.067843322753907,-5.548062744140625,0.6948550415039063,49.12726756742502
60615,-9.420659637451172,-6.1540026855468755,1.6233741760253908,47.736767608078864
60681,-5.859714660644531,-6.0254200744628905,1.8726058959960938,49.05412669011112
60748,-8.62536346435547,-4.811294860839844,1.8938616943359377,43.48285387522612
60815,-11.18713623046875,-1.0041119384765627,-1.4450949096679688,45.263522026285145
60882,-8.092920684814453,-1.7555493164062501,1.0427316284179688,40.1556930642988
60948,-8.885821838378906,-3.872896270751953,1.7295034790039063,53.95625140821468
61015,-12.630285186767578,-3.36021240234375,4.407434692382813,55.73200101830268
61081,-16.77651306152344,-0.3649411010742188,8.483458557128907,41.155772311285226
61148,-15.87179443359375,2.8461813354492187,5.670358428955079,53.744642208337446
61215,-14.119987335205078,-0.31404693603515627,5.085374908447266,61.622333324347814
61281,-13.178894348144532,-2.302661590576172,4.939129028320313,62.76499717115964
61348,-11.861633605957032,-2.4541465759277346,3.7761973571777347,62.478917978351454
61415,-10.043813781738281,-3.616629180908203,2.405946807861328,53.55164066515204
61481,-7.0573741149902345,-4.486919403076172,1.2395722961425781,40.24567757196038
61548,-8.21626419067383,-4.940625915527344,0.13442047119140627,42.458826475172614
61615,-8.949589233398438,-5.006638641357422,1.6913328552246094,50.364652057518136
61682,-7.713609466552735,-6.066285095214844,2.082170104980469,50.785981763876514
61748,-9.664652252197266,-5.810167694091797,0.9527687072753906,46.16727510113557
61815,-10.103240203857423,-3.4450859069824222,1.2710069274902345,38.22298871262366
61881,-8.036038970947265,-2.069147186279297,1.0882369995117187,53.6969257721596
61948,-9.61450653076172,-3.8118232727050785,1.7441729736328127,46.51878631030323
62015,-13.831986236572266,-2.6997857666015626,4.826712799072266,51.14410802397836
62081,-15.831827545166016,-0.6554869079589845,6.872358856201172,50.16247558065053
62148,-17.28395782470703,2.707419891357422,6.010600891113282,64.07577840330906
62215,-14.918726348876953,-1.6428337097167969,5.519472198486328,62.7471629769618
62281,-13.989907836914064,-3.8755906677246097,4.853656768798828,63.25191668866037
62348,-12.267140350341798,-3.6982095336914065,3.0828392028808596,57.367971433384085
62416,-9.557475128173829,-5.366939392089844,1.9237994384765627,47.12860064664458
62481,-7.696395263671875,-4.793032836914063,1.0984158325195312,46.04085586881876
62548,-9.614656219482422,-5.6378759765625,0.9972262573242188,50.49194756271152
62615,-7.579638061523438,-6.551725616455078,2.970572662353516,47.53812783564702
62681,-7.495213623046875,-5.628595275878906,0.9285191345214844,45.30097197734845
62748,-9.721234588623048,-4.5815226745605475,0.002544708251953125,47.06325118706268
62815,-9.638756103515625,-3.3524285888671876,1.2367282104492188,41.90835747532066
62881,-9.458830261230469,-2.3909779357910157,0.7482939147949219,55.03277122414743
62948,-11.453133087158204,-4.753964080810547,1.4087205505371094,56.529817938761354
63015,-15.18247787475586,-3.544179840087891,4.781207427978516,55.88866422994044
63081,-17.190701751708986,2.038011932373047,6.84301986694336,67.12841220291666
63148,-16.23284362792969,3.030597839355469,3.88232666015625,58.7501899000479
63215,-15.025903472900392,-2.2912852478027346,5.716761932373047,61.76467484599134
63281,-12.919783172607422,-5.048850860595703,6.937174072265625,62.869715240013946
63348,-12.189451904296876,-5.985752563476563,5.788612518310547,58.35702617449681
63415,-10.771001586914062,-7.301516418457032,3.4230816650390627,62.707521826380315
63481,-8.189469909667968,-5.022056579589844,0.43499542236328126,48.43849200594609
63548,-8.695717163085938,-4.4721002197265625,-0.5110372924804688,49.68566997416934
63615,-7.014712829589844,-5.824986877441407,1.4801220703125,54.68119783225503
63681,-7.152725830078126,-7.017257537841798,0.3543132019042969,51.96190007050505
63748,-10.239906005859375,-5.690267028808594,1.4813195800781251,52.68949864454949
63815,-11.692185974121095,-3.545826416015625,0.9497749328613282,55.999932685007934
63881,-11.118728485107422,-3.816014556884766,0.9541159057617188,59.20081043159079
63948,-13.378279724121095,-6.929390258789063,4.168381805419922,45.7725045807947
64015,-15.790663146972657,-3.4911900329589844,8.315208435058594,67.08963641434534
64082,-15.230677642822267,1.5257771301269532,9.679471435546876,67.80184770881303
64148,-13.161829833984376,0.9774673461914063,6.093528442382813,55.956659382796275
64215,-14.746434631347658,-2.135159912109375,6.391408996582031,71.98733768893432
64282,-16.452137603759766,-4.6024790954589845,6.42583740234375,70.73981998833928
64348,-13.94709686279297,-6.859036560058594,3.7016523742675784,72.38646495434938
64415,-9.670340423583985,-6.383325805664063,0.8900491333007813,57.10961429130191
64481,-6.949149169921875,-4.863985290527344,-0.2847079467773438,48.64647518273391
64548,-8.507558441162109,-5.154381408691407,-0.5007087707519532,43.94381627679536
64615,-6.903793487548828,-6.346652069091797,1.0624905395507813,49.91416591681552
64681,-7.157515869140625,-7.1069210815429695,1.5898439025878908,44.59663837022606
64748,-11.02996307373047,-6.2222607421875,1.2367282104492188,48.2740804761587
64816,-11.536659393310547,-3.919599151611328,1.6108003234863282,47.24873637217131
64881,-10.855426025390626,-2.8494744873046876,0.8738827514648438,54.063698354692676
64952,-13.538746032714844,-5.607489166259766,3.5341506958007813,45.2146498961477
65016,-13.992901611328126,-2.689157867431641,7.538623352050782,43.74876599702403
65081,-15.48664535522461,1.4275813293457031,8.871900787353516,52.31209547586417
65148,-16.858243103027345,3.5380426025390626,5.128485260009766,52.13081915773124
65215,-15.82434310913086,-3.2955468750000003,6.182443542480469,60.92903024098688
65281,-16.64867889404297,-5.6627243041992195,5.556744689941406,64.20958750881215
65348,-13.787229309082033,-7.135511627197266,4.455035705566407,56.43243375081882
65416,-9.516759796142578,-8.170908508300782,2.7521768188476563,60.766593731094844
65482,-8.90602981567383,-6.616391143798828,0.5761518859863282,53.73119899288963
65548,-10.0447119140625,-6.711144104003907,-0.9678872680664063,46.44832328825636
65615,-4.213138732910156,-7.112459564208985,-0.5251080322265625,45.2549831067667
65682,-4.242178344726563,-5.6282958984375,-0.25806335449218754,44.156743345662605
65748,-9.882599029541016,-6.008056182861329,3.2780332946777344,42.28477354445056
65816,-13.55386459350586,-4.277953948974609,0.4137396240234375,47.44512031394302
65882,-13.444741516113282,-3.516487426757813,2.2372476196289064,43.511776536842845
65948,-15.737823028564454,-5.519472198486328,3.6793487548828128,38.64036182725775
66015,-14.59135711669922,-2.262095947265625,5.457201690673829,48.42553077210083
66081,-15.178885345458985,1.5152989196777344,6.380930786132812,56.065715960241945
66148,-15.926430816650392,2.368374938964844,4.249064025878907,55.49859964070775
66215,-16.316369934082033,-2.8795619201660156,5.281766510009766,55.52119222735647
66281,-15.589780883789063,-6.516997833251954,5.104684753417969,59.643925860036724
66348,-12.902269592285156,-6.371650085449219,4.389621734619141,54.3099043218671
66415,-9.59729232788086,-7.4661740112304695,3.1930101013183596,47.234638816831456
66481,-7.616760864257813,-6.23707992553711,1.4579681396484376,56.650347310104934
66548,-7.913892974853516,-5.853278045654297,1.2518467712402344,51.95611871566085
66615,-6.447242889404297,-6.29695541381836,1.559008026123047,48.86067504919496
66682,-7.020700378417969,-6.235732727050782,-0.5119354248046876,45.81209852354842
66748,-10.518177337646485,-5.0235534667968755,0.8678952026367188,45.20810931536473
66816,-10.329120483398437,-2.8801606750488284,0.38634658813476563,43.1194448508462
66882,-10.493478698730469,-4.122427368164063,-0.28740234375,59.04750698452854
66948,-15.551759948730469,-7.430997161865235,2.125879211425781,62.826209801314576
67015,-18.702707519531252,-0.8653504943847656,5.8528289794921875,51.362416282271894
67081,-17.13965789794922,1.726659393310547,6.896309051513672,54.203304341425536
67148,-13.424383850097657,-1.0985655212402343,3.510799255371094,61.38506058289551
67216,-12.950020294189454,-3.146905975341797,5.046006774902344,53.88344579942691
67282,-15.053895263671876,-4.2555006408691405,4.491859130859376,50.8118882982792
67348,-12.053833923339845,-5.781876525878906,2.5379722595214846,60.485742470547514
67415,-8.689430236816406,-5.819598083496094,0.8095166015625,56.746701193426375
67481,-8.069569244384766,-5.409750366210938,-0.23665786743164063,49.51570634465446
67548,-9.894723815917969,-6.581813049316406,0.7438032531738281,51.15154346181371
67616,-8.771908721923829,-7.934100952148438,2.7665469360351564,52.37023177688451
67682,-8.203840026855469,-6.835685119628907,3.0852342224121094,50.60520309806642
67748,-10.673703918457031,-3.0430220031738284,-0.4986131286621094,55.576599600763686
67816,-6.941964111328125,-1.8161732482910158,0.6285429382324219,56.25925382006051
67881,-7.877069549560547,-1.9796333312988281,1.0169851684570312,62.54655851903712
67948,-12.017010498046876,-3.0433213806152346,3.2623159790039065,61.86203998950561
68015,-14.834301910400391,0.3608995056152344,7.1172496032714845,58.77018698459116
68081,-13.753848724365236,1.3846206665039062,9.050479431152343,44.4473162508875
68148,-12.61307098388672,0.4520599365234375,9.29507080078125,61.002978119356214
68216,-12.856614532470704,-2.241887969970703,6.940167846679688,57.631898150817555
68281,-12.192445678710937,-3.4194891357421877,5.614225158691407,67.01067783582477
68348,-10.844798126220704,-1.8049465942382814,3.013683013916016,59.97101858913534
68416,-8.04771469116211,-3.3251852416992187,2.1510269165039064,58.61051460254383
68481,-6.521338806152344,-3.2756382751464845,0.49606842041015625,51.396272484806374
68548,-7.8341088867187505,-4.479734344482422,-0.4375401306152344,35.87598729721245
68616,-6.794221343994141,-4.798271942138672,1.0138417053222657,45.462094120440085
68681,-9.079818420410156,-6.084846496582031,-0.9828561401367188,42.36587640756995
68748,-11.902947692871095,-5.747448120117188,1.9088305664062502,54.788405484818014
68816,-11.540850677490235,-2.1882994079589846,1.6280145263671877,51.32336549009504
68881,-10.24634262084961,-2.0314256286621095,1.7940193176269532,56.31943731542286
68948,-11.510164489746094,-4.098776550292969,3.38416259765625,41.7032039987338
69016,-12.798385620117188,-0.9644444274902344,5.735473022460938,56.6290225778537
69081,-15.657440185546875,1.2846286010742187,6.055208129882812,64.71427553558412
69148,-18.868263244628906,1.2328363037109376,2.5496479797363283,61.15457732952486
69215,-14.78729965209961,-4.1254211425781255,5.454507293701172,45.58648580964467
69281,-12.699141998291017,-5.104834442138672,4.964576110839844,62.92665134722476
69348,-9.66001190185547,-4.745581512451172,3.464395751953125,63.896865711993875
69416,-7.8700341796875,-4.373006286621094,0.8246351623535156,57.80258249836461
69481,-6.889872436523438,-3.911815338134766,0.2998265075683594,59.589292248667086
69548,-8.195607147216798,-5.663921813964844,0.7668553161621094,58.565047390109186
69615,-5.9390496826171875,-6.076912994384766,1.6085549926757814,56.28860777282466
69681,-7.671546936035156,-5.667813720703125,2.5243505859375,57.506418254094584
69748,-12.896431732177735,-2.232906646728516,1.2015513610839845,49.81728025361616
69815,-10.365195465087892,-1.3823753356933595,1.3126203918457031,49.82189795189175
69881,-8.533155212402344,-2.661016387939453,1.2451107788085938,52.64638403449551
69952,-10.724448394775392,-4.343068542480469,2.8960276794433595,38.45284126347992
70015,-12.340936889648438,-2.745590515136719,6.182593231201172,34.81155870828035
70081,-13.997991027832033,-0.2924917602539063,6.189029846191406,60.0892406869649
70148,-16.96676742553711,1.5678396606445313,6.900200958251953,52.13839042604425
70216,-15.141463165283204,-0.8879534912109376,6.917415161132813,41.57214922391151
70281,-12.73282196044922,-4.623585205078125,5.350623321533203,58.21821944811273
70348,-10.989696807861328,-4.540358276367188,3.450923767089844,56.879265109043125
70416,-9.099128265380859,-4.920717315673828,1.2120295715332032,59.162122556519144
70481,-8.010741577148439,-4.484973449707032,0.22962249755859376,49.53856298224986
70548,-10.629396057128908,-5.552553405761719,0.335302734375,48.06241042351636
70616,-9.00721939086914,-6.8741551208496094,2.2242247009277345,50.90677679897708
70681,-6.790179748535157,-6.268215179443359,1.2611274719238281,48.34725810759408
70748,-9.441017303466797,-3.0856832885742187,-0.3215313720703125,46.22669844705668
70815,-8.549471282958985,-1.8872753906250002,1.1897259521484376,34.050046650503695
70881,-8.280630340576172,-2.8592042541503906,1.0318043518066407,35.01196242027089
70948,-10.824889526367189,-4.542154541015625,2.9162356567382814,37.09863317440399
71015,-14.825320587158204,-2.5065376281738283,6.954238586425782,58.19036304063679
71081,-15.346087646484376,1.3334271240234377,6.797963562011719,41.58694118177861
71148,-16.85075866699219,3.297043762207031,5.05109619140625,40.98436045340363
71215,-15.793357543945314,-1.137484588623047,5.349725189208985,44.83230586902103
71281,-13.452675018310547,-3.5052607727050784,4.976551208496094,54.37596789013036
71348,-10.515932006835937,-4.052522735595703,3.6116894531250003,57.39809599021359
71416,-8.457562408447266,-4.254752197265625,1.6064593505859375,49.14840116055902
71482,-9.77302688598633,-3.782933349609375,0.9714797973632813,55.65448745334913
71548,-10.915900268554688,-5.7471487426757815,0.3296145629882813,48.28898242037426
71616,-5.9162969970703125,-6.007756805419922,0.5161267089843751,46.623233199075564
71682,-4.722828826904297,-5.312901763916016,0.738863525390625,42.423674769114385
71748,-9.690997467041017,-3.5739678955078125,1.2481045532226562,48.427277808327716
71816,-10.337503051757812,-2.8771669006347658,1.1916719055175782,50.653070281310164
71882,-10.422077178955078,-3.241359558105469,1.1135343933105468,44.652489729271366
71948,-14.982344055175782,-4.41447006225586,0.47136978149414066,44.5804831917427
72015,-15.905474395751954,-2.269281005859375,6.966363372802735,35.89391023136933
72081,-14.556479644775392,1.4569203186035158,7.991731109619141,37.55112266395071
72148,-15.324382781982422,3.0768516540527346,5.9162969970703125,38.985057855343584
72216,-15.873441009521486,-1.0138417053222657,5.179229736328125,39.692294798626435
72281,-15.431410217285157,-4.425397338867188,4.762646026611328,41.26910294600161
72348,-12.120595092773438,-5.420078887939454,4.554429016113281,50.660126730473706
72415,-9.241631927490236,-5.964197387695313,3.474873962402344,54.25485310708032
72482,-8.999435577392578,-5.239105224609375,2.3751109313964847,52.824521678624315
72548,-9.240584106445313,-5.620961151123047,0.8048762512207032,41.43327129992046
72615,-5.788163452148438,-6.315516815185547,0.899180145263672,39.98259338423699
72681,-5.918392639160157,-5.823639678955079,0.006286926269531251,52.87886789591213
72748,-9.484427032470704,-4.575235748291016,1.310973815917969,30.79181246047625
72815,-10.527757415771484,-2.8226802062988283,1.5214361572265627,39.944051466891665
72881,-10.41399398803711,-2.351609802246094,0.26958938598632814,27.275412570285567
72948,-13.535452880859376,-3.6814443969726565,2.7096652221679687,36.78518379040114
73015,-15.019466857910157,-3.421135711669922,8.951385498046875,42.871744603745015
73081,-15.599810028076172,1.7835411071777345,8.507109375,45.54149829550869
73148,-13.932127990722657,3.6715649414062503,6.5747776794433594,40.63821056343712
73216,-15.138469390869142,1.6926800537109377,6.103707275390625,45.71067978610245
73281,-16.660055236816408,-2.314636688232422,5.802832946777344,58.43889020037064
73348,-13.566588134765626,-4.810546417236329,3.2130683898925785,51.152376238070055
73416,-12.089609527587891,-6.700965270996094,2.598446502685547,45.10786217922839
73482,-12.148886260986329,-6.626420288085938,2.179018707275391,38.19346484080453
73548,-9.758058013916017,-7.63816635131836,2.714305572509766,42.177996799471174
73616,-3.5423835754394535,-6.970554656982422,1.5620018005371095,47.546005814196725
73681,-3.6574942016601564,-5.166805572509766,-0.7078779602050782,41.550930075304024
73748,-9.902956695556641,-4.470303955078125,1.366208953857422,41.539976866928
73816,-11.071127471923829,-2.5334815979003906,0.7725434875488282,33.46352974450639
73881,-10.821895751953125,-4.230652313232422,1.451232147216797,26.93726948923647
73948,-15.573614501953125,-3.4289195251464846,3.835324401855469,27.151673578484576
74016,-15.696359252929689,-0.40206390380859375,6.513704681396485,31.228709228644355
74081,-14.932946777343751,3.1090347290039064,5.274731140136719,43.087137766390036
74148,-14.14543441772461,2.7466383361816407,6.064039764404297,41.42858551113391
74216,-17.953665161132815,-0.5972579956054688,5.488486633300782,45.939613571323264
74282,-16.11952926635742,-4.383185119628907,5.445675659179688,42.344413512663344
74348,-12.821287994384766,-5.880521392822266,4.0689884948730475,36.38089721984506
74415,-9.436975708007813,-5.973777465820313,2.1270767211914063,46.43502025328
74481,-8.963210906982422,-4.980892181396484,0.9517208862304688,42.3159700556491
74548,-7.372618560791016,-5.97841781616211,0.9044192504882813,38.136476953468964
74616,-4.4791355895996094,-5.202730865478516,-0.8390052795410157,32.69512944217916
74682,-6.893914031982423,-3.394790496826172,-0.05882766723632813,30.6333335895175
74748,-10.42117904663086,-3.144211578369141,4.0037242126464845,38.96856772737205
74815,-11.270213470458986,-2.488125915527344,1.5907420349121095,39.974737588029804
74882,-13.30568069458008,-4.196223907470704,3.1223570251464845,43.27706231071694
74952,-14.951508178710938,-5.952222290039063,10.22478744506836,45.31376718081458
75015,-9.969119110107423,-2.3906785583496095,11.330238647460938,33.75846436309156
75081,-8.706644439697266,-0.05553451538085938,11.332783355712891,44.26917713880815
75148,-12.733271026611328,1.4588662719726564,9.51631072998047,47.60166053351598
75216,-16.80914520263672,-1.1535012817382813,8.694968719482421,39.99652425366079
75282,-16.282390594482422,-3.9610629272460938,5.601651306152344,39.26290986884864
75348,-12.667857055664063,-5.99278793334961,4.1656874084472655,49.879521260403656
75416,-8.59422821044922,-5.7014936828613285,0.6283932495117188,48.324322657403805
75482,-6.319408721923828,-3.994742889404297,-0.47690826416015625,36.39087871083738
75548,-6.455775146484375,-4.1570054626464845,-0.9554631042480469,38.60278099752235
75616,-5.096152496337891,-5.343138885498047,1.5623011779785156,40.02338880892056
75682,-8.748257904052736,-5.687722320556641,0.41089553833007814,34.21603926869831
75748,-12.82577865600586,-4.181853790283204,1.8520985412597657,35.224442335063195
75816,-12.842992858886719,-2.679877166748047,1.2014016723632812,37.05521613422667
75881,-11.555520172119142,-2.738405456542969,0.9339079284667969,46.73325083340811
75948,-11.985875244140626,-5.14734603881836,3.0491592407226564,42.24066664334767
76016,-12.221634979248048,-2.7794201660156252,5.9339602661132815,37.021719508577114
76081,-13.953533477783203,0.7476951599121094,6.499633941650391,31.4921911265538
76148,-14.173276519775392,1.8899697875976564,5.549559631347656,35.461723683169424
76216,-15.24474838256836,-0.8866062927246094,5.610932006835938,33.68844506825822
76281,-15.134278106689454,-4.066294097900391,5.24554183959961,38.467699535372184
76348,-12.647499389648438,-5.864953765869141,3.9368133544921875,38.063835018241676
76416,-10.503208465576172,-5.880371704101563,2.585273895263672,34.83016420144132
76482,-8.631500701904297,-4.56251220703125,0.4454736328125,40.032450548131465
76548,-8.052953796386719,-5.172793121337891,0.9425898742675781,30.02166061756508
76616,-6.741231536865235,-5.659580841064454,1.312321014404297,50.015606526425735
76682,-6.010301513671875,-6.198460235595704,0.24279510498046877,35.483894181329184
76748,-10.614427185058595,-3.7943096923828126,0.9325607299804688,36.06596309179285
76816,-11.341914367675782,-2.994672546386719,0.04460723876953125,34.26836453803508
76882,-10.052645416259766,-3.133733367919922,1.2952565002441407,33.74931553978188
76948,-11.426039428710938,-4.422253875732422,2.7202931213378907,51.01344890514841
77016,-13.655353546142578,-2.462978210449219,5.4672308349609375,53.708441892262414
77082,-13.49788101196289,-0.214354248046875,6.740782470703126,45.55807605738594
77148,-16.713494110107423,2.601889343261719,4.791835327148438,43.53377594888645
77216,-16.479979705810546,-0.10253677368164063,6.1522064208984375,40.86502198970369
77282,-13.779595184326173,-3.6375856018066406,5.942193145751953,36.6576855071938
77348,-13.342953186035157,-4.845274200439453,3.583547973632813,44.55408315242286
77416,-10.388995971679687,-5.644611968994141,3.053799591064453,41.0809123558122
77482,-9.109157409667969,-4.788542175292969,1.533710632324219,46.035340880196955
77548,-8.346343688964843,-5.655090179443359,1.6194822692871094,48.94216340768548
77616,-6.740932159423829,-5.481900329589844,1.8065931701660156,45.620072070364614
77682,-5.273234252929687,-4.685107269287109,1.124461669921875,40.662886452657105
77748,-9.321266326904297,-3.878434753417969,0.5846841430664063,35.73567773039218
77816,-11.854448547363281,-2.1174966430664064,-0.07379653930664062,35.83312151983078
77882,-10.029144287109375,-2.442620544433594,0.9942324829101563,32.52124552505644
77948,-10.216404876708985,-5.259762268066407,1.6208294677734376,31.737688231366498
78016,-12.958552551269532,-6.018684082031251,3.8467007446289063,38.00166990201364
78081,-15.40042465209961,-2.858156433105469,5.830525360107422,42.70259475526625
78148,-16.24017837524414,1.3597723388671876,5.501958618164063,36.671726724788684
78216,-13.323643341064454,0.8767268371582032,5.256918182373047,42.92721137774543
78282,-14.51142333984375,-1.1035052490234376,5.227429504394531,47.4123041102547
78348,-16.393309936523437,-3.440295867919922,5.428760833740235,39.33993163831242
78415,-15.277230834960939,-6.3247975158691405,4.092639312744141,41.17238142139819
78481,-10.647358703613282,-7.688312072753907,2.316133575439453,49.38214410930274
78548,-7.678881683349609,-5.788013763427735,1.0225236511230469,51.042446308322596
78615,-6.404880981445313,-5.528004455566407,0.6207591247558594,40.93981703914113
78682,-4.965025177001953,-5.661526794433594,1.1466156005859376,41.026394836913
78748,-5.790558471679688,-5.769452362060547,0.5487588500976562,40.58805486675907
78815,-11.874207458496095,-5.00603988647461,0.4132905578613281,40.49062889794125
78882,-14.054573364257813,-4.441264343261719,0.5486091613769531,29.37016107464814
78948,-11.797267456054689,-3.2865655517578127,1.723216552734375,33.694014136966246
79016,-11.180849304199219,-5.946983184814453,2.4777973937988285,28.954225460394078
79081,-11.631562042236329,-5.440436553955078,4.925207977294922,48.150395272923355
79148,-15.509547729492189,-0.21076171875000002,7.183711395263672,34.97620649781288
79215,-15.84634735107422,1.6027171325683593,8.399632873535158,46.52884256142734
79282,-15.269297332763673,-0.9651928710937501,6.70650375366211,48.769449059159115
79348,-14.417568511962891,-4.979544982910157,5.270390167236329,46.75521720607797
79416,-13.667777709960939,-6.672823791503907,3.812721405029297,57.363702047503736
79482,-12.497960357666017,-6.367309112548829,1.896556091308594,48.50793221132768
79548,-8.592132568359375,-6.1743603515625,1.8839822387695313,39.66329495163878
79616,-6.729855194091797,-5.875881042480469,1.5404466247558595,36.581068355063934
79682,-6.119424591064454,-6.063141632080079,1.5284715270996094,41.91339212563929
79748,-5.555846557617188,-6.246360626220704,0.8728349304199219,43.92098727163994
79816,-9.430539093017579,-5.744753723144531,1.341061248779297,39.990870226258885
79882,-12.427007904052735,-3.583997039794922,-0.358055419921875,43.34735147131833
79952,-10.614576873779297,-2.9521609497070314,0.6580316162109375,46.636443974833824
80015,-11.12965576171875,-5.485642547607422,1.3156141662597658,47.39192467336956
80082,-13.001962280273439,-6.462810516357422,4.374652862548828,58.51947778916025
80148,-16.066838836669923,-1.38192626953125,5.780529327392578,61.2109444352528
80216,-17.76236297607422,2.9916787719726563,5.746250610351563,58.92365117293019
80282,-14.581627349853516,-0.14055770874023438,4.768483886718751,52.35687490760946
80348,-15.365397491455079,-3.5711238098144533,5.436844024658203,61.141727996151886
80416,-15.209870910644533,-6.283333740234375,4.780758361816407,60.05007532727154
80482,-12.4541015625,-7.3197784423828125,3.4408946228027344,43.59550916763318
80548,-8.843609619140626,-6.15041015625,1.4421011352539064,45.72034721449677
80616,-7.410938873291016,-4.933590545654297,2.1406983947753906,44.67489712757465
80682,-9.21648422241211,-2.4327410888671874,1.7610877990722658,44.93151217795686
80748,-10.889555053710938,4.384981384277344,7.208110656738282,41.782861287775674
80816,-12.550201721191407,8.95587615966797,2.658621368408203,48.003733548913495
80882,-8.015531616210938,6.29695541381836,4.321962432861328,48.299402714195324
80948,-1.4254856872558594,1.8935623168945312,-0.6643185424804687,53.91711200121372
81015,1.3548326110839843,0.9827064514160156,-5.626050567626954,49.078626205128664
81082,0.2977308654785156,0.5743556213378906,-4.034560089111328,66.52927426534805
81148,1.4108161926269531,1.9248472595214845,-6.191724243164063,46.637480263583946
81216,1.979333953857422,5.035229187011719,-8.861572265625,55.4818420083314
81282,-1.0621911621093751,8.261320495605469,-6.73045394897461,61.74415707701457
81348,-3.805835723876953,8.913663940429688,0.45834686279296877,54.12428625192355
81416,-3.200494537353516,6.772516479492188,6.197262725830078,53.33743420782419
81482,-1.153201904296875,3.2433055114746097,8.64212860107422,48.99048588598453
81548,-1.9511924743652345,1.7753082275390626,6.975344696044922,36.8841982200271
81616,-5.949827270507813,2.299069061279297,5.965095520019531,43.67001630838441
81682,-7.960595855712891,3.1924113464355472,1.9676582336425783,39.24227581260118
81748,-9.298663330078126,0.6996450805664063,1.2531939697265626,52.913621894421894
81816,-12.587025146484375,-2.3715184020996096,4.863386535644532,49.55047620244845
81882,-17.406253509521484,-4.744384002685547,4.974754943847657,56.19341726132621
81948,-15.30312698364258,-3.0722113037109375,5.512137451171875,48.574832669524504
82016,-9.050329742431641,-0.865799560546875,4.710404663085938,46.924503234060154
82082,-8.029153289794923,-2.9632379150390626,2.3568489074707033,41.139099437540374
82148,-6.1698696899414065,-3.483555908203125,2.4483087158203127,43.957980061633926
82216,-6.0800564575195315,-2.251168670654297,5.612578582763672,50.41242630235316
82282,-10.575807495117187,-1.5028747558593751,7.386240234375,37.95949498902803
82348,-12.911849670410158,-1.2138258361816407,9.492809600830078,50.45510741211503
82416,-12.28734832763672,-2.9889843750000002,8.555309143066406,62.38246886526687
82482,-11.376193084716798,-3.44643310546875,5.8294775390625,60.27270081786032
82548,-10.27508285522461,-2.955005035400391,3.4382002258300783,45.00785172917456
82616,-9.168434143066406,-3.2564781188964846,3.090922393798828,54.123278027191155
82682,-7.929610290527344,-2.708318023681641,1.2533436584472657,48.241518777822215
82748,-7.652237091064453,-3.8431082153320313,1.975741424560547,37.86396461372304
82816,-7.449857940673828,-5.978268127441407,3.5348991394042972,44.205003391374795
82882,-9.204808502197267,-6.347400512695313,4.111649780273438,37.12228669619535
82948,-11.814331970214845,-2.958597564697266,5.122647399902344,34.56821348021599
83016,-8.932524719238282,-1.0193801879882813,2.5391697692871094,36.002103064093276
83082,-6.666237487792969,-0.07334747314453126,1.488354949951172,50.15154297265057
83148,-6.831793212890625,-1.7042060852050782,1.9513421630859376,42.85084503335219
83216,-8.19381088256836,-1.789977722167969,3.7218603515625004,57.69221454339517
83282,-8.491392059326172,-1.139879608154297,8.948990478515626,54.62873963349169
83348,-10.494376831054687,0.0014968872070312501,10.727891235351564,61.11275959100527
83416,-11.256292419433594,-0.6447093200683595,10.368189239501953,51.543387492977885
83482,-10.365045776367188,-2.6827212524414064,9.806856536865235,50.07547222459802
83548,-9.954748992919923,-2.2433848571777344,8.00220932006836,53.72674548286258
83616,-8.788673858642579,-0.9433383178710938,4.316873016357422,61.559681893387335
83682,-7.857610015869141,-0.9723779296875,2.2204824829101564,62.71852521822136
83748,-6.782096557617188,-1.7079483032226563,1.0524613952636719,47.65497186938374
83816,-7.682773590087891,-2.8065138244628907,1.024918670654297,42.448211945932826
83882,-8.614136810302735,-3.8176611328125003,3.271446990966797,46.90204943090766
83948,-10.33301239013672,-3.7726048278808597,2.0818707275390627,44.67356482237898
84016,-9.802216186523438,-3.4319132995605472,2.4179219055175785,45.95441104815296
84082,-9.479337615966797,-2.54590576171875,2.172432403564453,45.52546547955661
84148,-8.518485717773437,-1.6504678344726564,1.417552185058594,54.95795406497483
84215,-9.545500030517578,-3.6178266906738283,1.9977456665039064,61.62019254929305
84282,-11.655512237548828,-2.352208557128906,5.223986663818359,63.002645288898634
84348,-12.31279541015625,-0.04266128540039063,7.394622802734375,56.38767715160803
84416,-13.421539764404297,1.5832575988769533,7.671846313476563,59.38597270839033
84482,-14.27955551147461,-0.062120819091796876,6.880591735839844,63.08258058565129
84548,-12.155771942138673,-3.9143600463867188,7.0010911560058595,65.183497981907
84616,-11.868519287109375,-4.850064239501953,4.675078125000001,65.60632474355513
84682,-11.066487121582032,-3.497626647949219,2.173180847167969,57.22457043122
84748,-8.707243194580078,-3.9642063903808595,1.2774435424804689,60.74491695102313
84816,-7.439080352783203,-3.5973193359375,-0.09954299926757813,59.7319299288666
84882,-6.778803405761719,-4.256099395751954,-0.001347198486328125,51.326246509694556
84952,-6.338718566894531,-5.137017517089844,0.6403683471679688,50.84404670905761
85015,-10.311756591796875,-4.343367919921875,2.399360504150391,50.29497409972225
85082,-12.838951263427735,-2.1044737243652345,2.1794677734375,46.81033088063252
85148,-10.035730590820313,-0.42945693969726567,1.619033203125,55.331731883809866
85216,-7.977061614990235,-3.0027557373046876,1.0553054809570312,65.63182672422944
85282,-11.102113037109376,-4.578828277587891,3.882925415039063,60.973163225199166
85348,-11.880344696044922,-2.1812640380859376,8.537945251464844,66.5424760243384
85416,-12.354558563232423,0.6828799438476563,10.164163513183594,64.84115972831918
85482,-13.911321258544923,1.4853611755371094,8.519683227539064,65.59149839012971
85548,-13.320200500488282,-2.7472370910644535,8.44244384765625,64.10901179356324
85616,-12.597653045654297,-4.569248199462891,6.637946319580078,61.52012081944413
85682,-11.10570556640625,-3.886068878173828,3.770808563232422,63.920966143177836
85748,-9.120234375,-5.123545532226562,2.5201593017578126,56.31721709700622
85815,-7.395371246337891,-3.919150085449219,0.8619076538085938,55.438384280058884
85882,-7.612120513916016,-4.117188262939453,0.06721023559570313,53.52010696531568
85948,-7.426805877685547,-4.595593414306641,1.423988800048828,43.648697986669625
86016,-8.859626312255859,-4.821922760009766,2.575843505859375,37.96088428680668
86082,-11.721524963378906,-1.7742604064941407,0.8631051635742188,34.915017662373266
86148,-9.237889709472658,-1.3213023376464845,1.629661102294922,47.51194392897756
86216,-8.359665985107423,-2.0877085876464845,1.1320957946777344,54.99923406443979
86281,-10.004445648193359,-4.363875274658203,2.5246499633789066,52.981082450108005
86348,-13.816568298339844,-2.345921630859375,7.771389312744141,58.109781111670735
86416,-14.404246215820313,1.145867156982422,9.515711975097657,67.14498833388147
86482,-13.590837707519531,2.4869284057617187,8.349337463378907,66.62776619232129
86548,-14.518009643554688,-0.9147477722167969,7.813451843261719,59.88031151301278
86615,-13.473481750488283,-3.7805383300781252,5.999523925781251,67.0535397214898
86682,-11.484118652343751,-4.472549285888672,4.18409912109375,54.18549862049743
86748,-9.71854019165039,-5.075345764160157,2.292333068847656,53.61695734804306
86816,-7.872129821777344,-4.26358383178711,0.4704716491699219,53.32600027805082
86882,-7.371121673583985,-4.7874943542480475,0.5658233642578125,49.3379594228403
86948,-6.981182556152344,-4.4704536437988285,1.308878173828125,51.817692943765266
87016,-8.326584777832032,-5.133125610351563,-0.6768923950195312,54.03763761701065
87082,-10.30142807006836,-3.5895355224609378,2.209106140136719,42.18955417728722
87148,-11.570638732910156,-2.203118591308594,1.3482463073730468,49.07884097380656
87216,-9.32426010131836,-2.0314256286621095,1.1539503479003907,56.966219524374154
87282,-10.98595458984375,-4.753215637207031,2.076631622314453,63.90412226743764
87348,-12.862003326416016,-3.8815782165527346,3.9404058837890625,66.60261312769754
87415,-14.156212005615235,-0.8773255920410157,6.467450866699219,65.70994744637699
87482,-15.863711242675782,2.0972886657714844,6.245163116455078,72.57345912288835
87548,-13.787229309082033,-0.8649014282226563,5.559588775634766,68.67292025733464
87615,-14.428495788574219,-2.4495062255859374,5.866001586914063,68.67384510240514
87682,-14.32311492919922,-3.998335418701172,4.120481414794922,67.8793489279197
87748,-13.381123809814454,-4.973856811523437,3.3112641906738283,64.8954858753935
87815,-9.342671813964845,-5.459447021484375,2.58422607421875,63.396809505040196
87882,-6.830895080566407,-5.207520904541016,1.1451187133789062,56.23669938650362
87948,-6.8937643432617195,-4.7116021728515625,0.07559280395507813,57.2947176626634
88015,-5.397176513671876,-4.997956695556641,-1.0029144287109375,54.24839184719738
88082,-7.093598785400391,-5.067711639404297,-0.14085708618164064,50.60002412691961
88148,-11.867172088623047,-5.015021209716797,-0.5140310668945313,54.47508427640265
88216,-13.542937316894532,-4.743785247802735,0.18486557006835938,58.53793697404062
88282,-14.073883209228516,-4.5170068359375,1.1304492187500002,65.3095502085919
88348,-15.384557647705078,-5.316643981933594,3.920347595214844,61.69435182981406
88416,-13.591436462402344,-2.7894493103027345,6.929839324951172,68.3425585668998
88482,-13.10884002685547,0.8458909606933595,8.35143310546875,69.64013837686753
88549,-17.657730560302735,2.8936326599121096,6.958130493164063,71.7773172984668
88616,-16.228352966308595,-2.288141784667969,6.274352416992188,66.61667517980625
88682,-16.165483703613283,-5.606441345214844,3.7474571228027345,64.59896459380727
88748,-13.897400207519532,-6.107150115966797,2.020049285888672,65.86946180626165
88815,-10.615325317382814,-6.869814147949219,1.6830999755859375,61.17327319345491
88882,-8.454718322753907,-6.2032502746582034,1.3669573974609375,49.91367862987879
88948,-8.465495910644531,-5.595663757324219,0.21615051269531252,57.43483110458553
89015,-5.572312316894531,-5.237608337402344,1.5341596984863282,52.18627395777824
89082,-6.41191635131836,-4.07392822265625,-1.8327886962890625,34.937368022768396
89148,-9.677675170898437,-3.3455429077148438,0.6313870239257813,38.56547644856748
89216,-12.207564239501954,-2.4831861877441406,-0.16256195068359375,50.113462610374945
89282,-12.262799377441407,-3.2154634094238284,0.32287857055664065,53.860599904147776
89348,-14.499148864746095,-5.845943298339844,2.366279296875,56.91044341107852
89415,-15.743511199951172,-4.274660797119141,6.25384506225586,55.88097954296742
89482,-15.57960205078125,0.8391549682617188,9.996961212158203,62.23982140827795
89548,-13.367951202392579,1.961221618652344,6.33482666015625,57.63627124338484
89615,-16.86138656616211,-1.0523117065429688,4.211342468261719,58.440345788037796
89682,-16.63760192871094,-4.2309516906738285,5.511987762451172,65.57269778844166
89748,-14.395414581298828,-5.955515441894532,4.174369354248047,57.880261765447514
89816,-11.36287078857422,-7.631879425048829,0.947230224609375,50.86729891213295
89882,-7.086264038085938,-5.154082031250001,-1.2253518676757813,46.10734668006879
89953,-7.284002838134766,-4.194577331542969,-1.4733860778808594,41.92762535405685
90015,-7.207212524414063,-4.5708947753906255,0.05239105224609375,46.15508171528163
90082,-7.38189926147461,-6.037095794677735,-0.019309844970703125,52.00957144220044
90148,-12.015214233398439,-4.474644927978516,2.0278330993652345,52.52202315120396
90215,-11.211984558105469,-1.1587403869628907,1.0098001098632814,53.62665277266125
90282,-9.890083465576172,-2.800675964355469,1.6507672119140626,54.200366551341006
90348,-12.142599334716797,-4.3999502563476565,3.950135650634766,47.18551509468278
90415,-13.883778533935548,-1.014290771484375,8.313262481689453,49.33406292980529
90482,-14.073284454345703,1.3689033508300783,10.490335235595703,71.22601262400306
90548,-17.73975997924805,3.486998748779297,7.392826538085938,60.16239609397588
90616,-15.043866119384766,-2.29682373046875,7.147037658691406,64.04084853771273
90682,-13.501922607421875,-4.7063630676269534,3.7999978637695313,59.217171610754804
90749,-11.281589813232422,-5.302872619628906,3.5305581665039063,56.125963281324886
90816,-9.019793243408204,-6.468348999023438,1.9368223571777345,48.33593293998456
90882,-6.937922515869141,-4.9829878234863285,-0.4535568237304688,48.78877816965763
90948,-7.305408325195313,-4.141886901855469,-1.3587245178222658,39.12009375586978
91016,-6.986721038818359,-4.764891357421876,0.7719447326660157,42.249989605394525
91082,-8.799601135253907,-6.687044219970703,-1.1898756408691407,52.34091891836148
91148,-10.880873107910157,-5.592969360351563,2.305355987548828,51.47877196934796
91216,-12.143497467041016,-2.252515869140625,0.8875044250488282,43.740514500237204
91282,-11.294912109375,-2.1540206909179687,1.4545252990722657,40.249779720956255
91348,-12.53598129272461,-3.9219941711425785,4.212390289306641,54.87900197870137
91415,-12.749736785888672,-1.5090119934082031,7.17308349609375,51.691363749738244
91482,-14.855707397460938,2.362237701416016,7.804769897460938,51.70135516907656
91548,-17.98075881958008,0.5324427795410156,3.3823663330078126,52.77561084016506
91616,-15.471526794433595,-3.8624180603027347,5.710624694824219,60.696621780367565
91682,-13.181588745117189,-4.7592031860351565,4.923860778808594,56.184508096404656
91748,-10.951226806640626,-5.704487457275391,3.5087036132812504,51.23413860540082
91815,-8.066575469970704,-5.704487457275391,0.7934999084472657,54.66373755826798
91882,-6.017636260986328,-3.982618103027344,-1.1831396484375,58.106048028786674
91948,-7.005581817626953,-4.074976043701172,-1.004710693359375,36.93902741066061
92015,-8.134234771728517,-4.470603332519532,1.5834072875976564,39.58945932493936
92082,-9.614805908203126,-5.765111389160157,2.523003387451172,41.60618572399474
92148,-11.442205810546875,-3.097508697509766,0.7183561706542969,25.809249756756195
92215,-10.027497711181642,-0.9045689392089844,0.6441105651855469,24.13299764081252
92282,-9.247320098876953,-2.7451414489746093,1.746867370605469,43.81494132878298
92348,-11.526630249023437,-4.40923095703125,4.642895050048828,50.7195561030298
92416,-14.58282485961914,-1.2552896118164063,8.920699310302735,41.09004507541385
92482,-16.104261016845705,3.0383816528320313,7.377558288574219,51.32471020375096
92548,-15.32617904663086,1.7765057373046875,4.561314697265625,55.10091713430795
92615,-13.784085845947267,-2.8587551879882813,5.524711303710938,57.71344178438237
92682,-13.542488250732422,-4.110152893066407,4.856650543212891,57.35871046797619
92748,-10.372679901123048,-5.1662068176269536,3.2576756286621094,51.35034009193986
92815,-7.572902069091797,-5.704038391113282,1.482217712402344,43.379781078592586
92882,-7.150031433105469,-3.8049375915527346,-1.5525714111328126,45.83504826704517
92948,-8.397088165283204,-3.8946011352539065,-0.9343569946289063,44.73589144981379
93015,-6.662495269775391,-5.864504699707031,0.4101470947265625,43.88651717026825
93082,-8.275840301513671,-6.771618347167969,1.444047088623047,41.07718610520263
93148,-12.591964874267578,-4.124523010253906,2.3842419433593753,42.50615146990633
93215,-10.992840270996094,-0.8267308044433594,1.2745994567871095,49.397587972920405
93282,-9.252110137939454,-2.35909423828125,1.1518547058105468,62.67672169760686
93348,-10.935958557128906,-3.8475988769531253,2.343077545166016,49.419236676109804
93415,-13.25733123779297,-1.655108184814453,6.6048651123046875,56.54236241228826
93482,-15.775095520019532,1.6802558898925781,6.5378045654296875,58.867664428293864
93548,-16.01010681152344,1.5765216064453125,4.2028102111816406,57.16198732192527
93615,-15.451917572021484,-2.3204745483398437,5.5675222778320315,66.65640643787141
93682,-13.687835998535157,-3.703748016357422,4.0565643310546875,65.75376537223669
93749,-11.153905334472658,-3.932173004150391,2.441572723388672,58.92702189753371
93815,-8.290809173583984,-4.719535675048828,1.1163784790039064,50.04480442626567
93882,-7.154073028564453,-3.9065762329101563,-0.5188211059570312,60.24169478191797
93948,-8.225245513916017,-4.450694732666016,-0.959205322265625,51.751637744919535
94015,-8.06447982788086,-5.4266651916503905,0.36973114013671876,52.70869744031388
94082,-7.370672607421875,-6.562952270507813,2.199825439453125,52.625815957838064
94149,-11.767030334472658,-1.9287391662597657,1.6233741760253908,56.10606937465461
94215,-10.725945281982423,0.4076023864746094,3.0196705627441407,59.14245284363385
94282,-9.708960113525391,-0.48559020996093755,4.1321571350097654,60.32160051971588
94348,-9.933193817138672,-0.27916946411132815,5.828429718017579,50.14323087296508
94415,-9.076375579833984,0.9181906127929688,8.569080505371094,49.814697635065805
94482,-10.742411041259766,2.4375311279296876,10.46428939819336,48.32949370441942
94548,-13.267659759521486,2.1371058654785156,9.418414306640626,47.396356250100034
94615,-15.275135192871094,-0.35356475830078127,9.436376953125,57.14190561988424
94682,-12.609179077148438,-2.0582199096679688,6.587800598144532,62.42408734543022
94748,-8.331075439453125,-2.9928762817382815,3.7294944763183597,62.312827322477766
94815,-6.126609649658204,-3.1668145751953127,2.3366409301757813,58.44923046128983
94882,-7.129075012207031,-1.6771124267578126,-0.6289920043945313,50.58676506718243
94951,-8.344996490478517,-2.3860382080078124,0.8428971862792969,49.95464075185005
95016,-8.564739532470703,-1.909728698730469,2.1297711181640624,49.28242183157309
95082,-10.465786285400391,-2.7463389587402345,3.063978424072266,48.54372851197706
95148,-11.280841369628908,-0.3794609069824219,2.4869284057617187,47.225681153540656
95215,-7.606282653808594,0.42242156982421875,3.7823345947265627,46.91028418271315
95282,-5.801785125732422,-0.31404693603515627,2.472857666015625,38.70286828992592
95349,-9.217681732177734,0.29219238281250004,8.53150863647461,39.32016906434201
95415,-10.079888763427736,2.4815396118164066,14.885794830322267,41.21691130307576
95482,-9.462273101806641,1.9224522399902344,13.324990539550782,48.51423471564065
95548,-13.038785705566406,0.34518218994140626,12.668306121826172,49.234305489887774
95615,-13.449830932617187,-2.188748474121094,10.514285430908204,54.544347533992045
95682,-11.558963012695314,-2.324216766357422,6.9599267578125,54.813537538716595
95749,-8.016280059814454,-3.166066131591797,4.418960723876953,51.33126771788015
95815,-7.39821533203125,-2.3435266113281252,1.8456619262695313,45.44514517670439
95882,-7.645052032470703,-1.9357745361328127,0.6953041076660157,45.21752463406764
95949,-6.418652343750001,-2.5765919494628906,0.6056405639648438,42.66161112219401
96015,-6.301146697998047,-2.3990611267089843,2.6397605895996095,39.24124153185825
96082,-11.646231536865235,-0.3249742126464844,4.727169799804687,47.22164828650272
96149,-12.731474761962891,2.4668701171875003,2.3108944702148437,44.370684704281615
96216,-8.555009765625,1.357676696777344,4.445904693603516,41.094097905463656
96282,-5.322781219482422,0.8485853576660156,3.100203094482422,41.39060078649301
96348,-7.776329040527344,2.0680993652343753,7.809709625244141,38.120438979302264
96415,-7.603139190673828,4.572691040039063,14.00846923828125,33.53916230920363
96482,-11.35523666381836,5.702391815185547,15.706837463378907,38.945929479229555
96549,-14.713802490234375,3.732338562011719,13.67361557006836,49.2531724936073
96616,-12.209210815429689,-0.08247848510742188,9.467212829589844,59.36912667790847
96682,-10.017468566894532,-1.1554472351074219,5.9850041198730475,60.48552887930937
96749,-7.49401611328125,-1.4326707458496095,4.0320153808593755,59.562813131524734
96816,-5.449866943359376,-1.1617341613769532,1.7431251525878908,46.59963713278355
96882,-5.553301849365234,-0.8896000671386719,-0.8440946960449219,36.06488850442648
96949,-7.1332662963867195,-1.6256195068359376,-0.8331674194335938,42.58014363406741
97016,-7.627239074707032,-2.730172576904297,0.6316864013671876,51.45563085554568
97082,-13.145364074707032,-0.7288343811035156,7.9574523925781255,43.295199121858715
97149,-14.208004302978516,1.798360290527344,6.0079064941406255,42.0289680852953
97216,-9.007069702148438,1.1919712829589844,4.14577880859375,49.60760844536899
97282,-5.895639953613282,-0.3296145629882813,2.4875271606445315,42.62403623258783
97348,-10.046059112548829,0.6378236389160157,5.8969871520996096,38.90141460064577
97415,-8.453071746826172,0.738863525390625,9.656718750000001,50.296799710249374
97482,-8.834478607177735,2.720592498779297,12.861404571533203,48.82820417654229
97548,-13.301040344238283,2.5427622985839844,10.884315948486329,61.21793177848835
97615,-14.22357192993164,0.16495697021484376,9.86119354248047,59.75771757876196
97682,-11.613150329589844,-1.1982582092285157,7.342381439208984,61.28959870446208
97748,-9.867480468750001,-0.5062472534179687,2.1606069946289064,51.72419017593948
97815,-7.317533111572266,-1.4064752197265626,1.0523117065429688,47.2611567011036
97882,-5.858068084716797,-2.056273956298828,0.632135467529297,47.15418322595056
97948,-5.710624694824219,-3.5341506958007813,0.8559201049804688,43.2006315959498
98016,-7.334447937011719,-3.30752197265625,1.3449531555175782,49.04033551734992
98082,-12.660821685791015,-3.2205528259277347,2.3129901123046874,43.726911191057695
98149,-14.729519805908204,-1.0970686340332032,2.558180236816406,47.654450180901506
98216,-10.167905731201172,0.2963836669921875,2.6807752990722657,47.328760413627066
98282,-8.200846252441407,-0.9202862548828126,1.8497035217285158,47.5941096852076
98349,-8.938212890625,-1.6375946044921876,4.5090733337402344,49.028021715482865
98416,-11.157647552490236,1.8836828613281251,8.837322692871094,45.74355419939102
98482,-11.374247131347657,3.380570068359375,9.388326873779297,46.92106313785318
98549,-12.6025927734375,1.7904267883300782,11.980935516357423,58.56278657935619
98616,-15.109280090332032,-1.242865447998047,11.6350048828125,47.85044958331544
